participant,group,Lefthanded,Gender,A_V_OK,Event,condition,CONTEXT_Trial,CONTEXT_Item,CONTEXT_Accuracy,CONTEXT_RT,CONTEXT_Position,CONTEXT_cat,CONTEXT_catspec,CONTEXT_solution,CONTEXT_property,CONTEXT_concept,CONTEXT_LSA_distance,CONTEXT_mean_perceptualstrength,CONTEXT_mean_concreteness,CONTEXT_mean_exc,CONTEXT_prop_concreteness,CONTEXT_prop_exc,CONTEXT_prop_lg10CD,CONTEXT_prop_orthneigh,CONTEXT_prop_letters,CONTEXT_conc_concreteness,CONTEXT_conc_exc,CONTEXT_conc_lg10CD,CONTEXT_conc_letters,CONTEXT_mean_lg10CD,CONTEXT_conc_orthneigh,TARGET_Trial,TARGET_Item,TARGET_Accuracy,TARGET_RT,TARGET_Position,TARGET_cat,TARGET_catspec,TARGET_solution,TARGET_property,TARGET_concept,TARGET_LSA_distance,TARGET_mean_perceptualstrength,TARGET_mean_concreteness,TARGET_mean_exc,TARGET_prop_concreteness,TARGET_prop_exc,TARGET_prop_lg10CD,TARGET_prop_orthneigh,TARGET_prop_letters,TARGET_conc_concreteness,TARGET_conc_exc,TARGET_conc_lg10CD,TARGET_conc_letters,TARGET_mean_lg10CD,TARGET_conc_orthneigh,log_cooccurrence_propertytoproperty
1,Quick,N,F,Y,1,haptic2visual,1,117,rightanswer,448,context,haptic,h_de,Ja,Slijmerige,Vloeistof,0.650393,4,3.735,0.222513743,3.27,0.289855072,1.75,1,10,4.2,0.155172414,2.21,9,1.98,0,2,30,rightanswer,459,target,visual,v_de,Nee,Beige,Hoeveelheid,0.950069,3.548,3.265,0.420833334,4.6,0.541666667,1.76,1,5,1.93,0.3,2.5,11,2.13,0,0
2,Quick,N,F,Y,1,visual2visual,1,149,rightanswer,532,context,visual,v_de,Nee,Vuile,Prins,0.938472,2.929,3.7,0.224053296,NA,0.274193548,3.25,10,5,NA,0.173913044,2.78,5,3.015,2,2,48,wronganswer,365,target,visual,v_de,Ja,Rotsige,Beurs,0.981565,2.6,3.07,0.3046875,NA,0.359375,0.78,1,7,NA,0.25,2.61,5,1.695,1,4.418840608
3,Quick,N,F,Y,1,auditory2visual,1,214,rightanswer,712,context,auditory,a_het,Ja,Schel,Geluid,0.618908,3.619,3.27,0.520108696,NA,0.475,1,10,5,NA,0.565217391,3.14,6,2.07,4,2,105,rightanswer,593,target,visual,v_de,Nee,Lage,Magie,0.96932,3.386,2.335,0.558045977,NA,0.633333333,2.61,0,4,NA,0.482758621,2.75,5,2.68,1,9.106977859
4,Quick,N,F,Y,1,visual2visual,1,173,wronganswer,1415,context,visual,v_het,Nee,Licht,Fortuin,0.945551,3.173,3.265,0.38125,NA,0.5125,3.43,10,5,NA,0.25,2.69,7,3.06,0,2,54,rightanswer,1269,target,visual,v_de,Nee,Fonkelende,Verhulling,NA,3.367,3.87,0.339673913,NA,0.375,1.3,1,10,NA,0.304347826,0.78,10,1.04,1,8.096512918
5,Quick,Y,F,Y,1,visual2visual,1,162,rightanswer,1268,context,visual,v_het,Nee,Rot,Mandaat,1.07219,2.396,2.965,0.294117647,NA,0.470588235,3.33,24,3,NA,0.117647059,1.49,7,2.41,0,2,48,wronganswer,1230,target,visual,v_de,Ja,Rotsige,Beurs,0.981565,2.6,3.07,0.3046875,NA,0.359375,0.78,1,7,NA,0.25,2.61,5,1.695,1,0
6,,N,F,Y,1,auditory2visual,1,197,rightanswer,746,context,auditory,a_het,Nee,Lachend,Wantrouwen,0.921945,3.829,2.9,0.34375,NA,0.5,2.03,16,7,NA,0.1875,1.98,10,2.005,1,2,89,rightanswer,645,target,visual,v_de,Nee,Vlezige,Huur,0.947536,3.086,2.965,0.342320262,NA,0.361111111,1.04,0,7,NA,0.323529412,2.95,4,1.995,9,0
8,,N,F,Y,1,visual2visual,1,177,wronganswer,686,context,visual,v_de,Ja,Bolvormige,Formatie,0.83644,3.413,2.9,0.432432432,NA,0.486486486,0.48,0,10,NA,0.378378378,2.04,8,1.26,0,2,69,wronganswer,648,target,visual,v_de,Ja,Lichtbruine,Verhulling,NA,3.967,3.6,0.502173913,NA,0.7,0.9,0,11,NA,0.304347826,0.78,10,0.84,1,0
9,,N,F,Y,1,visual2visual,1,178,rightanswer,1011,context,visual,v_het,Ja,Donker,Moment,0.684565,2.952,2.665,0.439024391,NA,0.634146342,3.28,1,6,NA,0.243902439,3.7,6,3.49,0,2,70,wronganswer,3189,target,visual,v_het,Nee,Onbeweeglijk,Gebaar,0.872001,3.722,3.03,0.51532567,NA,0.444444444,1.23,0,12,NA,0.586206896,2.48,6,1.855,4,0
10,,N,F,Y,1,haptic2visual,1,119,rightanswer,703,context,haptic,h_het,Ja,Ruw,Contact,0.850669,3.357,3.135,0.228896104,NA,0.321428571,2.49,11,3,NA,0.136363636,3.37,7,2.93,2,2,11,wronganswer,525,target,visual,v_de,Ja,Droge,Weerstand,1.0069,3.671,3.065,0.309200604,NA,0.461538462,2.5,4,5,NA,0.156862745,2.36,9,2.43,0,9.699533696
11,Quick,N,F,Y,1,visual2visual,1,157,rightanswer,1157,context,visual,v_het,Ja,Vreemd,Aspect,0.886507,2.438,1.57,0.270186336,NA,0.15942029,3.51,2,6,NA,0.380952381,2.04,6,2.775,0,2,40,rightanswer,903,target,visual,v_de,Ja,Smerige,Boerderij,0.787197,3.691,3.765,0.18005279,NA,0.308823529,2.94,3,7,NA,0.051282051,2.77,9,2.855,0,0
12,Quick,N,M,Y,1,haptic2visual,1,118,rightanswer,758,context,haptic,h_het,Nee,Doorweekt,Welzijn,0.995511,3.59,2.565,0.227756893,NA,0.297619048,1.86,0,9,NA,0.157894737,2.33,7,2.095,0,2,2,wronganswer,706,target,visual,v_de,Ja,Zwoele,Levering,0.973728,2.733,2.865,0.147727273,NA,0.25,1.48,2,6,NA,0.045454546,2.19,8,1.835,1,0
13,Quick,N,F,Y,1,auditory2visual,1,204,rightanswer,506,context,auditory,a_de,Nee,Grommende,Economie,NA,3.771,1.53,0.412207358,NA,0.47826087,0.95,1,9,NA,0.346153846,2.44,8,1.695,0,2,93,wronganswer,703,target,visual,v_de,Ja,Miniatuur,Beurs,0.955464,3.1,3.37,0.367857143,NA,0.485714286,1.38,0,9,NA,0.25,2.61,5,1.995,1,0
14,Selfpaced,N,F,Y,1,auditory2visual,1,199,rightanswer,1335,context,auditory,a_de,Nee,Blaffende,Felicitatie,NA,4.295,2.67,0.374603175,NA,0.471428571,1.34,2,9,NA,0.277777778,1.2,11,1.27,1,2,91,rightanswer,1240,target,visual,v_de,Nee,Vage,Plug,0.958488,3.05,3.1,0.348148148,NA,0.296296296,2.18,14,4,NA,0.4,1.56,4,1.87,3,0
15,Selfpaced,N,F,Y,1,haptic2visual,1,129,rightanswer,735,context,haptic,h_de,Nee,Plakkende,Spier,NA,3.657,4.67,0.263115416,NA,0.238095238,0.48,2,9,NA,0.288135593,2.04,5,1.26,4,2,35,rightanswer,878,target,visual,v_het,Nee,Geblokt,Oosten,1.02688,3.151,3.27,0.528975742,NA,0.41509434,1.11,1,7,NA,0.642857143,2.71,6,1.91,5,0
16,Selfpaced,N,F,Y,1,visual2visual,1,156,wronganswer,765,context,visual,v_de,Ja,Onmetelijke,Levering,1.02835,2.958,2.335,0.260822511,NA,0.476190476,1.26,0,11,NA,0.045454546,2.19,8,1.725,1,2,41,rightanswer,1459,target,visual,v_de,Nee,Ijzige,Beurs,1.0372,2.5,3.07,0.210714286,NA,0.171428571,1.57,2,6,NA,0.25,2.61,5,2.09,1,0
17,Selfpaced,N,F,Y,1,haptic2visual,1,118,rightanswer,568,context,haptic,h_het,Nee,Doorweekt,Welzijn,0.995511,3.59,2.565,0.227756893,NA,0.297619048,1.86,0,9,NA,0.157894737,2.33,7,2.095,0,2,2,rightanswer,601,target,visual,v_de,Ja,Zwoele,Levering,0.973728,2.733,2.865,0.147727273,NA,0.25,1.48,2,6,NA,0.045454546,2.19,8,1.835,1,0
18,Selfpaced,N,F,Y,1,visual2visual,1,158,wronganswer,749,context,visual,v_het,Ja,Klonterig,Type,0.708814,2.794,2.63,0.271794872,NA,0.276923077,0.78,0,9,NA,0.266666667,3.08,4,1.93,5,2,59,rightanswer,2249,target,visual,v_de,Nee,Stompe,Wacht,0.850451,3.214,3.445,0.366666667,NA,0.333333333,0.85,5,6,NA,0.4,3.87,5,2.36,10,0
19,Selfpaced,N,F,Y,1,haptic2visual,1,133,rightanswer,1558,context,haptic,h_het,Nee,Borstelig,Heft,0.898736,3.25,3.155,0.338095238,NA,0.342857143,0.48,0,9,NA,0.333333333,2.03,4,1.255,8,2,7,rightanswer,1419,target,visual,v_het,Ja,Schriel,Loon,0.913305,3.369,2.7,0.277219873,NA,0.395348837,1.04,0,7,NA,0.159090909,2.8,4,1.92,13,0
20,Selfpaced,N,F,Y,1,haptic2visual,1,138,rightanswer,314,context,haptic,h_het,Nee,Glad,Vilt,0.83905,4.375,4.305,0.362650603,NA,0.325301205,2.17,2,6,NA,0.4,1.4,4,1.785,11,2,26,wronganswer,307,target,visual,v_het,Ja,Spits,Type,0.928955,3.321,2.7,0.375980393,NA,0.485294118,1.89,3,5,NA,0.266666667,3.08,4,2.485,5,6.8134446
21,Selfpaced,N,F,Y,1,haptic2visual,1,143,rightanswer,961,context,haptic,h_de,Ja,Tintelende,Spier,NA,3.795,4.67,0.415806927,NA,0.543478261,0.78,1,10,NA,0.288135593,2.04,5,1.41,4,2,29,rightanswer,860,target,visual,v_het,Ja,Tenger,Effect,0.917275,3.671,2.535,0.417843389,NA,0.421052632,1.3,1,6,NA,0.414634146,2.77,6,2.035,0,0
22,Selfpaced,N,M,Y,1,haptic2visual,1,143,rightanswer,485,context,haptic,h_de,Ja,Tintelende,Spier,NA,3.795,4.67,0.415806927,NA,0.543478261,0.78,1,10,NA,0.288135593,2.04,5,1.41,4,2,30,rightanswer,518,target,visual,v_de,Nee,Beige,Hoeveelheid,0.950069,3.548,3.265,0.420833334,NA,0.541666667,1.76,1,5,NA,0.3,2.5,11,2.13,0,0
23,Selfpaced,N,F,Y,1,auditory2visual,1,196,wronganswer,1982,context,auditory,a_het,Nee,Schor,Enthousiasme,0.859341,4.578,2.83,0.337784091,NA,0.59375,1.11,7,5,NA,0.081818182,2.25,12,1.68,1,2,94,wronganswer,1134,target,visual,v_het,Ja,Modderig,Sterven,0.856102,3.6,3.47,0.372710623,NA,0.435897436,1.42,1,8,NA,0.30952381,3.53,7,2.475,5,0
24,Selfpaced,Y,M,Y,1,haptic2visual,1,123,rightanswer,599,context,haptic,h_het,Ja,Heet,Pistool,0.773426,3.46,2.8,0.246153846,NA,0.4,3.74,18,4,NA,0.092307692,3.23,7,3.485,0,2,2,wronganswer,562,target,visual,v_de,Ja,Zwoele,Levering,0.973728,2.733,2.865,0.147727273,NA,0.25,1.48,2,6,NA,0.045454546,2.19,8,1.835,1,9.221082469
26,Quick,N,F,Y,1,auditory2visual,1,201,wronganswer,593,context,auditory,a_het,Ja,Luidruchtig,Noodgeval,0.814128,4.014,2.53,0.385799404,NA,0.526315789,2.05,1,11,NA,0.245283019,2.74,9,2.395,0,2,103,wronganswer,666,target,visual,v_het,Ja,Luchtig,Oosten,1.00194,2.762,2.87,0.510317461,NA,0.377777778,1.73,1,7,NA,0.642857143,2.71,6,2.22,5,0
27,Quick,Y,F,Y,1,auditory2visual,1,187,rightanswer,385,context,auditory,a_het,Nee,Knarsend,Gerucht,NA,4.536,2,0.267857143,NA,0.25,0.7,1,9,NA,0.285714286,2.61,7,1.655,4,2,96,rightanswer,653,target,visual,v_de,Ja,Verouderde,Pels,1.08048,3.188,3.7,0.406759907,NA,0.454545455,1.18,0,10,NA,0.358974359,1.26,4,1.22,9,0
28,Quick,N,F,Y,1,haptic2visual,1,125,wronganswer,980,context,haptic,h_het,Nee,Pulserend,Heft,NA,2.393,2.71,0.256410256,NA,0.179487179,0.48,0,9,NA,0.333333333,2.03,4,1.255,8,2,12,wronganswer,560,target,visual,v_de,Ja,Gesmolten,Weerstand,0.945311,3.671,2.33,0.31372549,NA,0.470588235,2.18,0,9,NA,0.156862745,2.36,9,2.27,0,0
29,Quick,N,F,Y,1,auditory2visual,1,183,wronganswer,820,context,auditory,a_de,Ja,Ritmische,Neiging,0.86689,2.522,2.535,0.19375,NA,0.2,1,0,9,NA,0.1875,2.16,7,1.58,0,2,95,wronganswer,922,target,visual,v_het,Ja,Rauw,Sterven,0.814663,3.1,3.535,0.385531136,NA,0.461538462,2.24,11,4,NA,0.30952381,3.53,7,2.885,5,3.828641396
30,Quick,N,M,Y,1,auditory2visual,1,199,rightanswer,569,context,auditory,a_de,Nee,Blaffende,Felicitatie,NA,4.295,2.67,0.374603175,NA,0.471428571,1.34,2,9,NA,0.277777778,1.2,11,1.27,1,2,86,rightanswer,529,target,visual,v_de,Nee,Glimmende,Ziekte,1.03236,3.7,3.5,0.33418223,NA,0.580645161,1.94,2,9,NA,0.087719298,2.98,6,2.46,3,0
31,Quick,Y,F,Y,1,auditory2visual,1,211,rightanswer,569,context,auditory,a_de,Nee,Melodieuze,Kennis,0.959205,3.811,2,0.494623656,NA,0.666666667,0.85,0,10,NA,0.322580645,3.22,6,2.035,1,2,93,wronganswer,536,target,visual,v_de,Ja,Miniatuur,Beurs,0.955464,3.1,3.37,0.367857143,NA,0.485714286,1.38,0,9,NA,0.25,2.61,5,1.995,1,0
32,Quick,N,F,N,1,visual2visual,1,172,rightanswer,916,context,visual,v_de,Nee,Langgerekte,Verbeelding,0.862372,3.821,2.3,0.37340302,NA,0.380952381,0.48,2,11,NA,0.365853659,2.49,11,1.485,0,2,61,rightanswer,656,target,visual,v_de,Nee,Gevouwen,Situatie,NA,3.571,2.27,0.383951407,NA,0.485294118,1.51,1,8,NA,0.282608696,3.33,8,2.42,1,4.477336814
34,Selfpaced,Y,M,Y,1,haptic2visual,1,122,rightanswer,1268,context,haptic,h_het,Ja,Broos,Bot,0.873392,3.482,3.87,0.243220339,NA,0.3,1.26,6,5,NA,0.186440678,2.71,3,1.985,29,2,24,rightanswer,827,target,visual,v_het,Nee,Onrijp,Dek,1.0097,3.063,3.73,0.367860188,NA,0.431372549,0.85,0,6,NA,0.304347826,2.8,3,1.825,22,4.718498871
35,Selfpaced,N,M,Y,1,auditory2visual,1,194,rightanswer,891,context,auditory,a_het,Nee,Gillend,Feit,NA,3.389,1.67,0.313265306,NA,0.326530612,1.87,2,7,NA,0.3,3.15,4,2.51,3,2,90,wronganswer,1612,target,visual,v_de,Nee,Lenige,Belasting,0.991066,3.5,2.735,0.347826087,NA,0.5,0.85,3,6,NA,0.195652174,2.56,9,1.705,0,0
36,Selfpaced,N,F,Y,1,haptic2visual,1,123,wronganswer,444,context,haptic,h_het,Ja,Heet,Pistool,0.773426,3.46,2.8,0.246153846,NA,0.4,3.74,18,4,NA,0.092307692,3.23,7,3.485,0,2,20,wronganswer,191,target,visual,v_de,Ja,Verkoolde,Plug,0.91221,2.85,4.13,0.362790698,NA,0.325581395,1.32,1,9,NA,0.4,1.56,4,1.44,3,0
37,Selfpaced,N,F,Y,1,haptic2visual,1,132,wronganswer,924,context,haptic,h_de,Nee,Stekelige,Deken,0.795281,3.786,4.465,0.284749035,NA,0.285714286,0.9,0,9,NA,0.283783784,2.6,5,1.75,18,2,36,wronganswer,1327,target,visual,v_de,Ja,Gouden,Gelegenheid,0.897149,3.529,2.87,0.53125,NA,0.5625,2.95,7,6,NA,0.5,2.75,11,2.85,1,0
38,Selfpaced,Y,F,Y,1,auditory2visual,1,214,rightanswer,865,context,auditory,a_het,Ja,Schel,Geluid,0.618908,3.619,3.27,0.520108696,NA,0.475,1,10,5,NA,0.565217391,3.14,6,2.07,4,2,100,wronganswer,1230,target,visual,v_de,Ja,Wazige,Verhulling,NA,3.367,3.47,0.47826087,NA,0.652173913,1.51,2,6,NA,0.304347826,0.78,10,1.145,1,5.572154032
39,Selfpaced,N,M,Y,1,auditory2visual,1,201,wronganswer,2986,context,auditory,a_het,Ja,Luidruchtig,Noodgeval,0.814128,4.014,2.53,0.385799404,NA,0.526315789,2.05,1,11,NA,0.245283019,2.74,9,2.395,0,2,76,wronganswer,924,target,visual,v_de,Ja,Krullende,Vrijheid,NA,3.365,1.47,0.213981115,NA,0.223880597,0.85,1,9,NA,0.204081633,3.11,8,1.98,0,4.615120517
40,Quick,N,F,Y,1,auditory2visual,1,205,wronganswer,464,context,auditory,a_het,Ja,Gedempt,Verleden,0.931374,3.378,1.8,0.413359789,NA,0.678571429,1.18,1,7,NA,0.148148148,3.3,8,2.24,7,2,98,rightanswer,216,target,visual,v_het,Nee,Behaard,Beheer,1.04916,2.825,3.2,0.420930233,NA,0.441860465,1.45,6,7,NA,0.4,1.95,6,1.7,5,0
41,Quick,N,F,N,1,haptic2visual,1,131,rightanswer,1026,context,haptic,h_de,Nee,Taaie,Vloeistof,0.864188,3.875,3.835,0.283606151,NA,0.301587302,2.19,10,5,NA,0.265625,2.21,9,2.2,0,2,23,rightanswer,650,target,visual,v_de,Nee,Blauwe,Boerderij,0.983035,3.579,4.365,0.36710444,NA,0.682926829,3.14,4,6,NA,0.051282051,2.77,9,2.955,0,7.955074273
42,Selfpaced,N,F,Y,1,haptic2visual,1,144,rightanswer,1144,context,haptic,h_het,Nee,Koud,Vilt,0.738496,4.1,4.135,0.436111111,NA,0.472222222,2.84,8,5,NA,0.4,1.4,4,2.12,11,2,3,rightanswer,484,target,visual,v_de,Nee,Barstende,Veiligheid,NA,2.889,1.93,0.212937063,NA,0.107692308,1.57,2,9,NA,0.318181818,3.13,10,2.35,3,5.192956851
44,Quick,N,F,Y,1,auditory2visual,1,200,wronganswer,655,context,auditory,a_het,Ja,Stil,Voornemen,0.876852,3.686,2.465,0.37515763,NA,0.442622951,3.58,8,4,NA,0.307692308,1.61,9,2.595,3,2,102,rightanswer,483,target,visual,v_de,Nee,Groene,Mist,0.770451,4.057,4.365,0.503088538,NA,0.580645161,2.94,7,6,NA,0.425531915,3.16,4,3.05,15,9.493637846
45,Quick,N,F,Y,1,haptic2visual,1,109,rightanswer,1084,context,haptic,h_het,Ja,Gebroken,Bot,0.552381,3.135,4,0.150597388,NA,0.114754098,3.31,3,8,NA,0.186440678,2.71,3,3.01,29,2,36,wronganswer,963,target,visual,v_de,Ja,Gouden,Gelegenheid,0.897149,3.529,2.87,0.53125,NA,0.5625,2.95,7,6,NA,0.5,2.75,11,2.85,1,6.91671502
46,Selfpaced,N,F,Y,1,auditory2visual,1,190,rightanswer,924,context,auditory,a_de,Nee,Gierende,Seconde,NA,3.411,2.87,0.306603774,NA,0.5,1.08,2,8,NA,0.113207547,2.85,7,1.965,1,2,102,rightanswer,1384,target,visual,v_de,Nee,Groene,Mist,0.770451,4.057,4.365,0.503088538,NA,0.580645161,2.94,7,6,NA,0.425531915,3.16,4,3.05,15,6.59441346
47,Selfpaced,N,F,Y,1,haptic2visual,1,113,rightanswer,906,context,haptic,h_het,Nee,Kietelend,Pistool,NA,4.089,4.87,0.2,NA,0.307692308,0.6,1,9,NA,0.092307692,3.23,7,1.915,0,2,28,rightanswer,948,target,visual,v_de,Nee,Groeiende,Wacht,NA,3.527,3.2,0.415384616,NA,0.430769231,1.91,3,9,NA,0.4,3.87,5,2.89,10,0
48,Selfpaced,N,F,Y,1,visual2visual,1,168,rightanswer,721,context,visual,v_de,Nee,Gevorkte,Race,0.945167,4.048,4.47,0.353144655,NA,0.366666667,0.6,0,8,NA,0.339622642,2.5,4,1.55,9,2,67,rightanswer,931,target,visual,v_de,Nee,Bronzen,Boete,0.985813,2.96,3.3,0.480107527,NA,0.766666667,1.61,2,7,NA,0.193548387,2.47,5,2.04,8,0
49,Quick,N,M,Y,1,visual2visual,1,155,wronganswer,433,context,visual,v_de,Ja,Mottige,Verhulling,NA,2.867,2.07,0.255639098,NA,0.142857143,0.6,1,7,NA,0.368421053,0.78,10,0.69,1,2,60,rightanswer,387,target,visual,v_het,Ja,Nauw,Effect,1.04643,3.371,2.4,0.37398374,NA,0.333333333,2.36,8,4,NA,0.414634146,2.77,6,2.565,0,0
50,Quick,N,M,Y,1,visual2visual,1,162,rightanswer,639,context,visual,v_het,Nee,Rot,Mandaat,1.07219,2.396,2.965,0.294117647,NA,0.470588235,3.33,24,3,NA,0.117647059,1.49,7,2.41,0,2,42,wronganswer,593,target,visual,v_het,Ja,Smakeloos,Moment,0.925003,1.986,1.9,0.22195122,NA,0.2,1.75,0,9,NA,0.243902439,3.7,6,2.725,0,0
1,Quick,N,F,Y,2,visual2visual,3,157,rightanswer,488,context,visual,v_het,Ja,Vreemd,Aspect,0.886507,2.438,1.57,0.270186336,1.67,0.15942029,3.51,2,6,1.47,0.380952381,2.04,6,2.775,0,4,38,rightanswer,428,target,visual,v_de,Nee,Elastische,Boerderij,1.00684,3.982,3.8,0.15275967,3.4,0.254237288,1.04,1,10,4.2,0.051282051,2.77,9,1.905,0,4.356708827
2,Quick,N,F,Y,2,haptic2visual,3,128,rightanswer,474,context,haptic,h_het,Nee,Hitsig,Vilt,0.809776,3.75,3.47,0.2625,NA,0.125,1.46,1,7,NA,0.4,1.4,4,1.43,11,4,1,rightanswer,429,target,visual,v_het,Nee,Kokend,Mandaat,0.901574,2.306,1.93,0.131191951,NA,0.144736842,1.77,4,6,NA,0.117647059,1.49,7,1.63,0,0
3,Quick,N,F,Y,2,haptic2visual,3,121,wronganswer,888,context,haptic,h_het,Ja,Mals,Contact,1.20917,3.982,3.1,0.242094862,NA,0.347826087,1.64,13,4,NA,0.136363636,3.37,7,2.505,2,4,14,wronganswer,932,target,visual,v_de,Nee,Diepe,Plug,0.914433,3.5,3.6,0.326666667,NA,0.253333333,2.69,10,5,NA,0.4,1.56,4,2.125,3,7.286191715
4,Quick,N,F,Y,2,visual2visual,3,152,rightanswer,946,context,visual,v_de,Ja,Zanderige,Race,0.956875,3.014,4.17,0.235987792,NA,0.132352941,0.7,0,9,NA,0.339622642,2.5,4,1.6,9,4,51,wronganswer,1090,target,visual,v_de,Nee,Aardse,Magie,0.839526,2.286,1.97,0.312807882,NA,0.142857143,2.18,6,6,NA,0.482758621,2.75,5,2.465,1,0
5,Quick,Y,F,Y,2,haptic2visual,3,128,rightanswer,1865,context,haptic,h_het,Nee,Hitsig,Vilt,0.809776,3.75,3.47,0.2625,NA,0.125,1.46,1,7,NA,0.4,1.4,4,1.43,11,4,4,rightanswer,1324,target,visual,v_de,Ja,Beschimmelde,Levering,0.87933,3.333,3.335,0.272727273,NA,0.5,1.2,0,12,NA,0.045454546,2.19,8,1.695,1,0
6,,N,F,Y,2,auditory2visual,3,206,rightanswer,957,context,auditory,a_het,Nee,Kreunend,Gelach,NA,4.882,4,0.416666667,NA,0.5,0.78,1,8,NA,0.333333333,1.95,6,1.365,0,4,98,rightanswer,466,target,visual,v_het,Nee,Behaard,Beheer,1.04916,2.825,3.2,0.420930233,NA,0.441860465,1.45,6,7,NA,0.4,1.95,6,1.7,5,4.007333185
8,,N,F,Y,2,haptic2visual,3,144,rightanswer,372,context,haptic,h_het,Nee,Koud,Vilt,0.738496,4.1,4.135,0.436111111,NA,0.472222222,2.84,8,5,NA,0.4,1.4,4,2.12,11,4,36,rightanswer,859,target,visual,v_de,Ja,Gouden,Gelegenheid,0.897149,3.529,2.87,0.53125,NA,0.5625,2.95,7,6,NA,0.5,2.75,11,2.85,1,7.097548851
9,,N,F,Y,2,haptic2visual,3,121,wronganswer,950,context,haptic,h_het,Ja,Mals,Contact,1.20917,3.982,3.1,0.242094862,NA,0.347826087,1.64,13,4,NA,0.136363636,3.37,7,2.505,2,4,13,wronganswer,1944,target,visual,v_de,Ja,Absorberende,Verbeelding,NA,2.683,1.6,0.317073171,NA,0.268292683,0.9,1,12,NA,0.365853659,2.49,11,1.695,0,0
10,,N,F,Y,2,visual2visual,3,156,wronganswer,569,context,visual,v_de,Ja,Onmetelijke,Levering,1.02835,2.958,2.335,0.260822511,NA,0.476190476,1.26,0,11,NA,0.045454546,2.19,8,1.725,1,4,48,wronganswer,353,target,visual,v_de,Ja,Rotsige,Beurs,0.981565,2.6,3.07,0.3046875,NA,0.359375,0.78,1,7,NA,0.25,2.61,5,1.695,1,0
11,Quick,N,F,Y,2,auditory2visual,3,212,wronganswer,832,context,auditory,a_het,Ja,Zoemend,Advies,NA,4.59,1.87,0.506112145,NA,0.603773585,0.85,0,7,NA,0.408450704,3.04,6,1.945,0,4,84,rightanswer,685,target,visual,v_de,Ja,Vieze,Uitvinding,0.873652,3.671,2.6,0.31219865,NA,0.558823529,2.89,10,5,NA,0.065573771,2.18,10,2.535,0,0
12,Quick,N,M,Y,2,haptic2visual,3,120,wronganswer,664,context,haptic,h_het,Ja,Hard,Heft,0.890188,2.938,3.055,0.238095238,NA,0.142857143,3.6,12,4,NA,0.333333333,2.03,4,2.815,8,4,28,rightanswer,851,target,visual,v_de,Nee,Groeiende,Wacht,NA,3.527,3.2,0.415384616,NA,0.430769231,1.91,3,9,NA,0.4,3.87,5,2.89,10,8.791790024
13,Quick,N,F,Y,2,haptic2visual,3,115,rightanswer,550,context,haptic,h_de,Nee,Jeukende,Schok,NA,2.857,3.33,0.205882353,NA,0.333333333,0.95,1,8,NA,0.078431372,2.62,5,1.785,6,4,27,rightanswer,609,target,visual,v_de,Nee,Gebogen,Gelegenheid,0.96045,3.151,2.835,0.383802817,NA,0.267605634,2.04,8,7,NA,0.5,2.75,11,2.395,1,0
14,Selfpaced,N,F,Y,2,haptic2visual,3,123,rightanswer,617,context,haptic,h_het,Ja,Heet,Pistool,0.773426,3.46,2.8,0.246153846,NA,0.4,3.74,18,4,NA,0.092307692,3.23,7,3.485,0,4,30,wronganswer,1477,target,visual,v_de,Nee,Beige,Hoeveelheid,0.950069,3.548,3.265,0.420833334,NA,0.541666667,1.76,1,5,NA,0.3,2.5,11,2.13,0,6.646390515
15,Selfpaced,N,F,Y,2,auditory2visual,3,196,wronganswer,777,context,auditory,a_het,Nee,Schor,Enthousiasme,0.859341,4.578,2.83,0.337784091,NA,0.59375,1.11,7,5,NA,0.081818182,2.25,12,1.68,1,4,102,wronganswer,647,target,visual,v_de,Nee,Groene,Mist,0.770451,4.057,4.365,0.503088538,NA,0.580645161,2.94,7,6,NA,0.425531915,3.16,4,3.05,15,4.343805422
16,Selfpaced,N,F,Y,2,visual2visual,3,151,wronganswer,1157,context,visual,v_het,Ja,Rommelend,Moment,NA,2.723,1.33,0.231042129,NA,0.218181818,0.6,12,9,NA,0.243902439,3.7,6,2.15,0,4,68,wronganswer,1437,target,visual,v_de,Nee,Paarse,Vrijheid,1.01049,3.955,2.8,0.497389654,NA,0.790697674,2.15,10,6,NA,0.204081633,3.11,8,2.63,0,0
17,Selfpaced,N,F,Y,2,visual2visual,3,180,wronganswer,710,context,visual,v_de,Nee,Doorschijnende,Verhulling,NA,3.792,3.5,0.501011123,NA,0.697674419,0.48,0,14,NA,0.304347826,0.78,10,0.63,1,4,49,rightanswer,473,target,visual,v_het,Nee,Mistig,Loon,0.934111,3.286,3.47,0.308116883,NA,0.457142857,1.7,2,6,NA,0.159090909,2.8,4,2.25,13,3.737669618
18,Selfpaced,N,F,Y,2,visual2visual,3,172,wronganswer,668,context,visual,v_de,Nee,Langgerekte,Verbeelding,0.862372,3.821,2.3,0.37340302,NA,0.380952381,0.48,2,11,NA,0.365853659,2.49,11,1.485,0,4,64,rightanswer,852,target,visual,v_de,Nee,Rechthoekige,Sierlijkheid,0.610794,3.884,4,0.417568543,NA,0.53968254,1,0,12,NA,0.295454545,0.6,12,0.8,0,7.832014181
19,Selfpaced,N,F,Y,2,auditory2visual,3,199,rightanswer,1356,context,auditory,a_de,Nee,Blaffende,Felicitatie,NA,4.295,2.67,0.374603175,NA,0.471428571,1.34,2,9,NA,0.277777778,1.2,11,1.27,1,4,108,wronganswer,1972,target,visual,v_de,Ja,Blonde,Pupil,0.910093,4.05,4.1,0.620110447,NA,0.679245283,2.55,4,6,NA,0.56097561,1.66,5,2.105,0,0
20,Selfpaced,N,F,Y,2,visual2visual,3,159,rightanswer,795,context,visual,v_het,Ja,Groot,Onderscheid,0.910296,3.438,2.5,0.283068783,NA,0.380952381,3.7,6,5,NA,0.185185185,2.1,11,2.9,1,4,37,wronganswer,345,target,visual,v_het,Ja,Brak,Bezit,0.901718,3.314,2.71,0.149180328,NA,0.2,2.9,7,4,NA,0.098360656,3.16,5,3.03,4,7.850103545
21,Selfpaced,N,F,Y,2,visual2visual,3,168,rightanswer,822,context,visual,v_de,Nee,Gevorkte,Race,0.945167,4.048,4.47,0.353144655,NA,0.366666667,0.6,0,8,NA,0.339622642,2.5,4,1.55,9,4,49,rightanswer,664,target,visual,v_het,Nee,Mistig,Loon,0.934111,3.286,3.47,0.308116883,NA,0.457142857,1.7,2,6,NA,0.159090909,2.8,4,2.25,13,0
22,Selfpaced,N,M,Y,2,visual2visual,3,176,rightanswer,749,context,visual,v_de,Ja,Korte,Expansie,0.974158,3.625,2.565,0.413461539,NA,0.576923077,3.05,14,5,NA,0.25,1.04,8,2.045,0,4,67,rightanswer,421,target,visual,v_de,Nee,Bronzen,Boete,0.985813,2.96,3.3,0.480107527,NA,0.766666667,1.61,2,7,NA,0.193548387,2.47,5,2.04,8,5.899897354
23,Selfpaced,N,F,Y,2,visual2visual,3,145,rightanswer,1158,context,visual,v_het,Nee,Breekbaar,Loon,0.920184,2.636,3.1,0.160427808,NA,0.161764706,1.9,0,9,NA,0.159090909,2.8,4,2.35,13,4,41,rightanswer,1422,target,visual,v_de,Nee,Ijzige,Beurs,1.0372,2.5,3.07,0.210714286,NA,0.171428571,1.57,2,6,NA,0.25,2.61,5,2.09,1,0
24,Selfpaced,Y,M,Y,2,visual2visual,3,146,rightanswer,541,context,visual,v_de,Nee,Weerkaatsende,Levering,NA,2.933,3.2,0.184491979,NA,0.323529412,0.3,0,13,NA,0.045454546,2.19,8,1.245,1,4,50,wronganswer,602,target,visual,v_de,Ja,Losse,Levering,0.933941,3.033,3.2,0.311188812,NA,0.576923077,2.47,20,5,NA,0.045454546,2.19,8,2.33,1,0
26,Quick,N,F,Y,2,auditory2visual,3,194,rightanswer,442,context,auditory,a_het,Nee,Gillend,Feit,NA,3.389,1.67,0.313265306,NA,0.326530612,1.87,2,7,NA,0.3,3.15,4,2.51,3,4,79,wronganswer,462,target,visual,v_de,Nee,Vallende,Verhulling,NA,3.517,NA,0.26905703,NA,0.233766234,1.99,2,8,NA,0.304347826,0.78,10,1.385,1,6.64509097
27,Quick,Y,F,Y,2,haptic2visual,3,124,rightanswer,553,context,haptic,h_het,Nee,Zijdeachtig,Zeer,0.880074,3.911,1.6,0.255668399,NA,0.356164384,0.7,0,12,NA,0.155172414,3.5,4,2.1,19,4,1,rightanswer,851,target,visual,v_het,Nee,Kokend,Mandaat,0.901574,2.306,1.93,0.131191951,NA,0.144736842,1.77,4,6,NA,0.117647059,1.49,7,1.63,0,0
28,Quick,N,F,Y,2,haptic2visual,3,128,rightanswer,656,context,haptic,h_het,Nee,Hitsig,Vilt,0.809776,3.75,3.47,0.2625,NA,0.125,1.46,1,7,NA,0.4,1.4,4,1.43,11,4,35,wronganswer,1250,target,visual,v_het,Nee,Geblokt,Oosten,1.02688,3.151,3.27,0.528975742,NA,0.41509434,1.11,1,7,NA,0.642857143,2.71,6,1.91,5,0
29,Quick,N,F,Y,2,haptic2visual,3,129,rightanswer,988,context,haptic,h_de,Nee,Plakkende,Spier,NA,3.657,4.67,0.263115416,NA,0.238095238,0.48,2,9,NA,0.288135593,2.04,5,1.26,4,4,12,rightanswer,1945,target,visual,v_de,Ja,Gesmolten,Weerstand,0.945311,3.671,2.33,0.31372549,NA,0.470588235,2.18,0,9,NA,0.156862745,2.36,9,2.27,0,0
30,Quick,N,M,Y,2,auditory2visual,3,202,rightanswer,599,context,auditory,a_de,Nee,Rinkelende,Verklaring,NA,3.533,1.8,0.404634581,NA,0.515151515,0.9,1,10,NA,0.294117647,3.13,10,2.015,0,4,101,rightanswer,579,target,visual,v_het,Nee,Oranje,Concept,0.99857,3.513,2.965,0.498317915,NA,0.655172414,2.45,12,6,NA,0.341463415,2.34,7,2.395,1,0
31,Quick,Y,F,Y,2,auditory2visual,3,204,rightanswer,462,context,auditory,a_de,Nee,Grommende,Economie,NA,3.771,1.53,0.412207358,NA,0.47826087,0.95,1,9,NA,0.346153846,2.44,8,1.695,0,4,92,wronganswer,499,target,visual,v_het,Ja,Schattig,Moment,0.785329,3.064,1.9,0.367049259,NA,0.490196078,2.96,2,8,NA,0.243902439,3.7,6,3.33,0,0
32,Quick,N,F,N,2,auditory2visual,3,196,rightanswer,540,context,auditory,a_het,Nee,Schor,Enthousiasme,0.859341,4.578,2.83,0.337784091,NA,0.59375,1.11,7,5,NA,0.081818182,2.25,12,1.68,1,4,105,rightanswer,407,target,visual,v_de,Nee,Lage,Magie,0.96932,3.386,2.335,0.558045977,NA,0.633333333,2.61,0,4,NA,0.482758621,2.75,5,2.68,1,6.165417854
34,Selfpaced,Y,M,Y,2,visual2visual,3,149,rightanswer,1429,context,visual,v_de,Nee,Vuile,Prins,0.938472,2.929,3.7,0.224053296,NA,0.274193548,3.25,10,5,NA,0.173913044,2.78,5,3.015,2,4,70,rightanswer,1648,target,visual,v_het,Nee,Onbeweeglijk,Gebaar,0.872001,3.722,3.03,0.51532567,NA,0.444444444,1.23,0,12,NA,0.586206896,2.48,6,1.855,4,0
35,Selfpaced,N,M,Y,2,visual2visual,3,179,rightanswer,744,context,visual,v_het,Ja,Glitterend,Effect,NA,3.671,2.07,0.464892831,NA,0.515151515,0.48,0,10,NA,0.414634146,2.77,6,1.625,0,4,51,rightanswer,1035,target,visual,v_de,Nee,Aardse,Magie,0.839526,2.286,1.97,0.312807882,NA,0.142857143,2.18,6,6,NA,0.482758621,2.75,5,2.465,1,0
36,Selfpaced,N,F,Y,2,haptic2visual,3,131,rightanswer,459,context,haptic,h_de,Nee,Taaie,Vloeistof,0.864188,3.875,3.835,0.283606151,NA,0.301587302,2.19,10,5,NA,0.265625,2.21,9,2.2,0,4,23,rightanswer,286,target,visual,v_de,Nee,Blauwe,Boerderij,0.983035,3.579,4.365,0.36710444,NA,0.682926829,3.14,4,6,NA,0.051282051,2.77,9,2.955,0,7.955074273
37,Selfpaced,N,F,Y,2,haptic2visual,3,141,wronganswer,917,context,haptic,h_het,Ja,Koel,Heft,0.866279,2.75,3.055,0.395833333,NA,0.458333333,2.52,17,4,NA,0.333333333,2.03,4,2.275,8,4,19,rightanswer,1201,target,visual,v_de,Ja,Jankende,Proportie,NA,3.013,1.8,0.346082779,NA,0.207317073,1.36,2,8,NA,0.484848485,1.32,9,1.34,1,6.507277712
38,Selfpaced,Y,F,Y,2,haptic2visual,3,124,rightanswer,484,context,haptic,h_het,Nee,Zijdeachtig,Zeer,0.880074,3.911,1.6,0.255668399,NA,0.356164384,0.7,0,12,NA,0.155172414,3.5,4,2.1,19,4,10,rightanswer,764,target,visual,v_de,Nee,Knappe,Ziekte,0.889361,3.4,2.83,0.302480339,NA,0.517241379,3.01,11,6,NA,0.087719298,2.98,6,2.995,3,4.812184355
39,Selfpaced,N,M,Y,2,visual2visual,3,160,rightanswer,1029,context,visual,v_de,Ja,Zwarte,Kip,0.88176,3.73,4.57,0.284567727,NA,0.509433962,3.33,4,6,NA,0.059701492,2.96,3,3.145,18,4,38,rightanswer,730,target,visual,v_de,Nee,Elastische,Boerderij,1.00684,3.982,3.8,0.15275967,NA,0.254237288,1.04,1,10,NA,0.051282051,2.77,9,1.905,0,9.533293059
40,Quick,N,F,Y,2,auditory2visual,3,212,wronganswer,444,context,auditory,a_het,Ja,Zoemend,Advies,NA,4.59,1.87,0.506112145,NA,0.603773585,0.85,0,7,NA,0.408450704,3.04,6,1.945,0,4,91,rightanswer,335,target,visual,v_de,Nee,Vage,Plug,0.958488,3.05,3.1,0.348148148,NA,0.296296296,2.18,14,4,NA,0.4,1.56,4,1.87,3,0
41,Quick,N,F,N,2,visual2visual,3,179,rightanswer,835,context,visual,v_het,Ja,Glitterend,Effect,NA,3.671,2.07,0.464892831,NA,0.515151515,0.48,0,10,NA,0.414634146,2.77,6,1.625,0,4,66,rightanswer,792,target,visual,v_het,Nee,Kleurrijk,Fortuin,0.914891,3.214,2.9,0.447916667,NA,0.645833333,1.76,1,9,NA,0.25,2.69,7,2.225,0,4.48863637
42,Selfpaced,N,F,Y,2,auditory2visual,3,186,rightanswer,1740,context,auditory,a_de,Nee,Stormachtige,Eis,0.9187,3.656,2.6,0.232600733,NA,0.131868132,1.45,1,12,NA,0.333333333,2.64,3,2.045,13,4,78,wronganswer,474,target,visual,v_de,Ja,Doffe,Eigenaar,0.958726,3.048,3.065,0.256535948,NA,0.277777778,1.34,2,5,NA,0.235294118,3.02,8,2.18,1,3.828641396
44,Quick,N,F,Y,2,auditory2visual,3,189,wronganswer,495,context,auditory,a_het,Ja,Fluisterend,Doel,NA,3.056,2.13,0.300684485,NA,0.389830508,1.3,2,11,NA,0.211538462,3.3,4,2.3,16,4,80,rightanswer,441,target,visual,v_de,Nee,Pure,Plug,0.995621,2.875,3.23,0.271428572,NA,0.142857143,2.74,8,4,NA,0.4,1.56,4,2.15,3,4.304065093
45,Quick,N,F,Y,2,auditory2visual,3,203,wronganswer,1805,context,auditory,a_het,Ja,Luid,Welkom,0.868225,3.971,2.765,0.405092593,NA,0.625,2.54,11,4,NA,0.185185185,3.57,6,3.055,2,4,91,rightanswer,1433,target,visual,v_de,Nee,Vage,Plug,0.958488,3.05,3.1,0.348148148,NA,0.296296296,2.18,14,4,NA,0.4,1.56,4,1.87,3,0
46,Selfpaced,N,F,Y,2,auditory2visual,3,196,rightanswer,1427,context,auditory,a_het,Nee,Schor,Enthousiasme,0.859341,4.578,2.83,0.337784091,NA,0.59375,1.11,7,5,NA,0.081818182,2.25,12,1.68,1,4,88,wronganswer,915,target,visual,v_de,Ja,Soepele,Substituut,0.99406,2.75,2.58,0.340263692,NA,0.327586207,1.56,3,7,NA,0.352941176,0.6,10,1.08,0,7.082548569
47,Selfpaced,N,F,Y,2,visual2visual,3,178,wronganswer,983,context,visual,v_het,Ja,Donker,Moment,0.684565,2.952,2.665,0.439024391,NA,0.634146342,3.28,1,6,NA,0.243902439,3.7,6,3.49,0,4,72,rightanswer,889,target,visual,v_het,Ja,Grotesk,Effect,0.94522,3.571,2.075,0.635888502,NA,0.857142857,1.34,1,7,NA,0.414634146,2.77,6,2.055,0,5.771441123
48,Selfpaced,N,F,Y,2,visual2visual,3,175,wronganswer,832,context,visual,v_de,Nee,Kleine,Reus,0.710016,3.679,3.5,0.404761905,NA,0.476190476,3.67,4,6,NA,0.333333333,2.29,4,2.98,7,4,59,rightanswer,555,target,visual,v_de,Nee,Stompe,Wacht,0.850451,3.214,3.445,0.366666667,NA,0.333333333,0.85,5,6,NA,0.4,3.87,5,2.36,10,8.507546814
49,Quick,N,M,Y,2,auditory2visual,3,202,wronganswer,785,context,auditory,a_de,Nee,Rinkelende,Verklaring,NA,3.533,1.8,0.404634581,NA,0.515151515,0.9,1,10,NA,0.294117647,3.13,10,2.015,0,4,105,rightanswer,553,target,visual,v_de,Nee,Lage,Magie,0.96932,3.386,2.335,0.558045977,NA,0.633333333,2.61,0,4,NA,0.482758621,2.75,5,2.68,1,0
50,Quick,N,M,Y,2,auditory2visual,3,204,rightanswer,847,context,auditory,a_de,Nee,Grommende,Economie,NA,3.771,1.53,0.412207358,NA,0.47826087,0.95,1,9,NA,0.346153846,2.44,8,1.695,0,4,93,rightanswer,651,target,visual,v_de,Ja,Miniatuur,Beurs,0.955464,3.1,3.37,0.367857143,NA,0.485714286,1.38,0,9,NA,0.25,2.61,5,1.995,1,0
1,Quick,N,F,Y,3,visual2visual,5,150,wronganswer,1266,context,visual,v_het,Nee,Weinig,Fortuin,0.816837,2.214,1.965,0.229166667,1.33,0.208333333,3.49,3,6,2.6,0.25,2.69,7,3.09,0,6,60,wronganswer,721,target,visual,v_het,Ja,Nauw,Effect,1.04643,3.371,2.4,0.37398374,2.73,0.333333333,2.36,8,4,2.07,0.414634146,2.77,6,2.565,0,11.11792541
2,Quick,N,F,Y,3,visual2visual,5,170,rightanswer,651,context,visual,v_de,Nee,Flikkerende,Socialist,NA,3.025,1.93,0.365418119,NA,0.535714286,1.18,1,11,NA,0.195121951,1.46,9,1.32,0,6,69,rightanswer,944,target,visual,v_de,Ja,Lichtbruine,Verhulling,NA,3.967,3.6,0.502173913,NA,0.7,0.9,0,11,NA,0.304347826,0.78,10,0.84,1,0
3,Quick,N,F,Y,3,auditory2visual,5,200,rightanswer,1042,context,auditory,a_het,Ja,Stil,Voornemen,0.876852,3.686,2.465,0.37515763,NA,0.442622951,3.58,8,4,NA,0.307692308,1.61,9,2.595,3,6,89,rightanswer,908,target,visual,v_de,Nee,Vlezige,Huur,0.947536,3.086,2.965,0.342320262,NA,0.361111111,1.04,0,7,NA,0.323529412,2.95,4,1.995,9,0
4,Quick,N,F,Y,3,haptic2visual,5,123,rightanswer,784,context,haptic,h_het,Ja,Heet,Pistool,0.773426,3.46,2.8,0.246153846,NA,0.4,3.74,18,4,NA,0.092307692,3.23,7,3.485,0,6,17,rightanswer,1379,target,visual,v_de,Ja,Ondiepe,Kwestie,0.879064,2.938,2.365,0.332810867,NA,0.424242424,1.54,1,7,NA,0.24137931,3.03,7,2.285,1,6.863803391
5,Quick,Y,F,Y,3,haptic2visual,5,112,wronganswer,2414,context,haptic,h_de,Nee,Schurende,Spier,NA,3.357,4.67,0.195349848,NA,0.102564103,0.48,1,9,NA,0.288135593,2.04,5,1.26,4,6,30,rightanswer,2353,target,visual,v_de,Nee,Beige,Hoeveelheid,0.950069,3.548,3.265,0.420833334,NA,0.541666667,1.76,1,5,NA,0.3,2.5,11,2.13,0,0
6,,N,F,Y,3,auditory2visual,5,210,rightanswer,515,context,auditory,a_het,Ja,Geluidloos,Antwoord,0.810143,4,2.835,0.470746108,NA,0.52173913,1.11,0,10,NA,0.419753086,3.53,8,2.32,1,6,102,rightanswer,696,target,visual,v_de,Nee,Groene,Mist,0.770451,4.057,4.365,0.503088538,NA,0.580645161,2.94,7,6,NA,0.425531915,3.16,4,3.05,15,0
8,,N,F,Y,3,visual2visual,5,150,wronganswer,579,context,visual,v_het,Nee,Weinig,Fortuin,0.816837,2.214,1.965,0.229166667,NA,0.208333333,3.49,3,6,NA,0.25,2.69,7,3.09,0,6,42,rightanswer,1074,target,visual,v_het,Ja,Smakeloos,Moment,0.925003,1.986,1.9,0.22195122,NA,0.2,1.75,0,9,NA,0.243902439,3.7,6,2.725,0,7.973844376
9,,N,F,Y,3,auditory2visual,5,195,rightanswer,634,context,auditory,a_de,Ja,Morrende,Leiding,NA,3.571,2.67,0.326794258,NA,0.526315789,0.3,0,8,NA,0.127272727,3.09,7,1.695,0,6,87,rightanswer,2320,target,visual,v_de,Ja,Vochtige,Mist,0.690076,3.302,4.12,0.335716777,NA,0.245901639,1.77,1,8,NA,0.425531915,3.16,4,2.465,15,0
10,,N,F,Y,3,haptic2visual,5,130,wronganswer,631,context,haptic,h_de,Ja,Geneeskrachtige,Rots,0.920404,2.557,4.73,0.263673891,NA,0.176470588,1,0,15,NA,0.350877193,2.62,4,1.81,8,6,22,wronganswer,426,target,visual,v_de,Ja,Roestige,Hoeveelheid,0.9656,3.964,2.73,0.366666667,NA,0.433333333,1.65,1,8,NA,0.3,2.5,11,2.075,0,0
11,Quick,N,F,Y,3,visual2visual,5,153,rightanswer,885,context,visual,v_het,Ja,Bloemrijk,Bezit,1.06813,3.714,2.715,0.249180328,NA,0.4,0.7,0,9,NA,0.098360656,3.16,5,1.93,4,6,58,rightanswer,922,target,visual,v_de,Ja,Bleke,Ziekte,0.818318,3.6,3.63,0.354204477,NA,0.620689655,1.92,4,5,NA,0.087719298,2.98,6,2.45,3,0
12,Quick,N,M,Y,3,auditory2visual,5,184,rightanswer,796,context,auditory,a_het,Nee,Fluitend,Verleden,NA,2.778,1.33,0.223112536,NA,0.298076923,1.04,2,8,NA,0.148148148,3.3,8,2.17,7,6,84,wronganswer,533,target,visual,v_de,Ja,Vieze,Uitvinding,0.873652,3.671,2.6,0.31219865,NA,0.558823529,2.89,10,5,NA,0.065573771,2.18,10,2.535,0,5.062595033
13,Quick,N,F,Y,3,auditory2visual,5,202,rightanswer,592,context,auditory,a_de,Nee,Rinkelende,Verklaring,NA,3.533,1.8,0.404634581,NA,0.515151515,0.9,1,10,NA,0.294117647,3.13,10,2.015,0,6,84,rightanswer,745,target,visual,v_de,Ja,Vieze,Uitvinding,0.873652,3.671,2.6,0.31219865,NA,0.558823529,2.89,10,5,NA,0.065573771,2.18,10,2.535,0,0
14,Selfpaced,N,F,Y,3,auditory2visual,5,216,wronganswer,1255,context,auditory,a_het,Nee,Lauw,Volume,0.871071,2.563,3.265,0.57184529,NA,0.662921348,1.54,10,4,NA,0.480769231,1.99,6,1.765,0,6,106,wronganswer,797,target,visual,v_de,Nee,Fuchsia,Eigenaar,0.94063,3.902,3.735,0.577106519,NA,0.918918919,1,0,7,NA,0.235294118,3.02,8,2.01,1,0
15,Selfpaced,N,F,Y,3,haptic2visual,5,125,rightanswer,641,context,haptic,h_het,Nee,Pulserend,Heft,NA,2.393,2.71,0.256410256,NA,0.179487179,0.48,0,9,NA,0.333333333,2.03,4,1.255,8,6,24,rightanswer,656,target,visual,v_het,Nee,Onrijp,Dek,1.0097,3.063,3.73,0.367860188,NA,0.431372549,0.85,0,6,NA,0.304347826,2.8,3,1.825,22,0
16,Selfpaced,N,F,Y,3,auditory2visual,5,206,rightanswer,1234,context,auditory,a_het,Nee,Kreunend,Gelach,NA,4.882,4,0.416666667,NA,0.5,0.78,1,8,NA,0.333333333,1.95,6,1.365,0,6,80,rightanswer,1078,target,visual,v_de,Nee,Pure,Plug,0.995621,2.875,3.23,0.271428572,NA,0.142857143,2.74,8,4,NA,0.4,1.56,4,2.15,3,6.052089169
17,Selfpaced,N,F,Y,3,visual2visual,5,177,rightanswer,486,context,visual,v_de,Ja,Bolvormige,Formatie,0.83644,3.413,2.9,0.432432432,NA,0.486486486,0.48,0,10,NA,0.378378378,2.04,8,1.26,0,6,47,rightanswer,480,target,visual,v_de,Ja,Bloedige,Worp,0.838693,3.314,3.835,0.295066414,NA,0.35483871,1.85,2,8,NA,0.235294118,2.23,4,2.04,4,0
18,Selfpaced,N,F,Y,3,auditory2visual,5,181,wronganswer,565,context,auditory,a_de,Ja,Zeurende,Wrok,NA,2.548,1.8,0.179861111,NA,0.270833333,1.38,2,8,NA,0.088888889,2.2,4,1.79,4,6,90,rightanswer,927,target,visual,v_de,Nee,Lenige,Belasting,0.991066,3.5,2.735,0.347826087,NA,0.5,0.85,3,6,NA,0.195652174,2.56,9,1.705,0,0
19,Selfpaced,N,F,Y,3,visual2visual,5,158,wronganswer,1632,context,visual,v_het,Ja,Klonterig,Type,0.708814,2.794,2.63,0.271794872,NA,0.276923077,0.78,0,9,NA,0.266666667,3.08,4,1.93,5,6,56,rightanswer,3256,target,visual,v_het,Ja,Transparant,Bezit,1.05536,3.777,2.735,0.353528154,NA,0.608695652,1.38,0,11,NA,0.098360656,3.16,5,2.27,4,0
20,Selfpaced,N,F,Y,3,visual2visual,5,170,wronganswer,1007,context,visual,v_de,Nee,Flikkerende,Socialist,NA,3.025,1.93,0.365418119,NA,0.535714286,1.18,1,11,NA,0.195121951,1.46,9,1.32,0,6,68,rightanswer,633,target,visual,v_de,Nee,Paarse,Vrijheid,1.01049,3.955,2.8,0.497389654,NA,0.790697674,2.15,10,6,NA,0.204081633,3.11,8,2.63,0,0
21,Selfpaced,N,F,Y,3,visual2visual,5,170,rightanswer,1123,context,visual,v_de,Nee,Flikkerende,Socialist,NA,3.025,1.93,0.365418119,NA,0.535714286,1.18,1,11,NA,0.195121951,1.46,9,1.32,0,6,57,rightanswer,1865,target,visual,v_de,Nee,Compacte,Reus,1.01699,2.984,3.435,0.354166667,NA,0.375,1.43,1,8,NA,0.333333333,2.29,4,1.86,7,0
22,Selfpaced,N,M,Y,3,auditory2visual,5,184,rightanswer,1343,context,auditory,a_het,Nee,Fluitend,Verleden,NA,2.778,1.33,0.223112536,NA,0.298076923,1.04,2,8,NA,0.148148148,3.3,8,2.17,7,6,87,rightanswer,649,target,visual,v_de,Ja,Vochtige,Mist,0.690076,3.302,4.12,0.335716777,NA,0.245901639,1.77,1,8,NA,0.425531915,3.16,4,2.465,15,0
23,Selfpaced,N,F,Y,3,auditory2visual,5,191,wronganswer,2270,context,auditory,a_het,Nee,Schreeuwend,Compliment,0.977691,3.444,3.035,0.308147397,NA,0.224137931,2.02,2,11,NA,0.392156863,2.59,10,2.305,0,6,92,rightanswer,1356,target,visual,v_het,Ja,Schattig,Moment,0.785329,3.064,1.9,0.367049259,NA,0.490196078,2.96,2,8,NA,0.243902439,3.7,6,3.33,0,0
24,Selfpaced,Y,M,Y,3,haptic2visual,5,124,rightanswer,519,context,haptic,h_het,Nee,Zijdeachtig,Zeer,0.880074,3.911,1.6,0.255668399,NA,0.356164384,0.7,0,12,NA,0.155172414,3.5,4,2.1,19,6,6,rightanswer,582,target,visual,v_de,Nee,Grove,Sierlijkheid,0.931037,3.446,2.07,0.274487836,NA,0.253521127,2.16,6,5,NA,0.295454545,0.6,12,1.38,0,5.093750201
26,Quick,N,F,Y,3,haptic2visual,5,136,rightanswer,653,context,haptic,h_de,Nee,Klamme,Geest,0.834267,2.567,2.57,0.355983773,NA,0.470588235,1.4,10,6,NA,0.24137931,3.28,5,2.34,9,6,34,rightanswer,964,target,visual,v_de,Ja,Effen,Deel,0.93126,3.675,3.035,0.503496504,NA,0.461538462,1.26,4,5,NA,0.545454545,3.54,4,2.4,13,0
27,Quick,Y,F,Y,3,haptic2visual,5,134,rightanswer,515,context,haptic,h_de,Ja,Korrelige,Rots,0.87875,3.357,4.43,0.34785239,NA,0.344827586,0.3,0,9,NA,0.350877193,2.62,4,1.46,8,6,31,rightanswer,499,target,visual,v_de,Nee,Gevlekte,Belasting,0.981789,3.528,3.1,0.438251619,NA,0.680851064,1.4,3,8,NA,0.195652174,2.56,9,1.98,0,0
28,Quick,N,F,Y,3,visual2visual,5,152,rightanswer,1026,context,visual,v_de,Ja,Zanderige,Race,0.956875,3.014,4.17,0.235987792,NA,0.132352941,0.7,0,9,NA,0.339622642,2.5,4,1.6,9,6,56,rightanswer,867,target,visual,v_het,Ja,Transparant,Bezit,1.05536,3.777,2.735,0.353528154,NA,0.608695652,1.38,0,11,NA,0.098360656,3.16,5,2.27,4,4.820281566
29,Quick,N,F,Y,3,visual2visual,5,146,rightanswer,1581,context,visual,v_de,Nee,Weerkaatsende,Levering,NA,2.933,3.2,0.184491979,NA,0.323529412,0.3,0,13,NA,0.045454546,2.19,8,1.245,1,6,54,wronganswer,2165,target,visual,v_de,Nee,Fonkelende,Verhulling,NA,3.367,3.87,0.339673913,NA,0.375,1.3,1,10,NA,0.304347826,0.78,10,1.04,1,3.761200116
30,Quick,N,M,Y,3,haptic2visual,5,140,rightanswer,818,context,haptic,h_de,Ja,Warme,Massage,0.752902,4.306,3.835,0.388146168,NA,0.393939394,2.87,9,5,NA,0.382352941,2.31,7,2.59,3,6,17,wronganswer,1281,target,visual,v_de,Ja,Ondiepe,Kwestie,0.879064,2.938,2.365,0.332810867,NA,0.424242424,1.54,1,7,NA,0.24137931,3.03,7,2.285,1,6.863803391
31,Quick,Y,F,Y,3,auditory2visual,5,212,wronganswer,617,context,auditory,a_het,Ja,Zoemend,Advies,NA,4.59,1.87,0.506112145,NA,0.603773585,0.85,0,7,NA,0.408450704,3.04,6,1.945,0,6,101,rightanswer,633,target,visual,v_het,Nee,Oranje,Concept,0.99857,3.513,2.965,0.498317915,NA,0.655172414,2.45,12,6,NA,0.341463415,2.34,7,2.395,1,0
32,Quick,N,F,N,3,auditory2visual,5,199,rightanswer,541,context,auditory,a_de,Nee,Blaffende,Felicitatie,NA,4.295,2.67,0.374603175,NA,0.471428571,1.34,2,9,NA,0.277777778,1.2,11,1.27,1,6,90,rightanswer,436,target,visual,v_de,Nee,Lenige,Belasting,0.991066,3.5,2.735,0.347826087,NA,0.5,0.85,3,6,NA,0.195652174,2.56,9,1.705,0,0
34,Selfpaced,Y,M,Y,3,auditory2visual,5,195,rightanswer,684,context,auditory,a_de,Ja,Morrende,Leiding,NA,3.571,2.67,0.326794258,NA,0.526315789,0.3,0,8,NA,0.127272727,3.09,7,1.695,0,6,107,wronganswer,919,target,visual,v_de,Ja,Gespikkelde,Pels,0.756941,3.313,4.235,0.602564103,NA,0.846153846,0.78,0,11,NA,0.358974359,1.26,4,1.02,9,0
35,Selfpaced,N,M,Y,3,visual2visual,5,180,wronganswer,1022,context,visual,v_de,Nee,Doorschijnende,Verhulling,NA,3.792,3.5,0.501011123,NA,0.697674419,0.48,0,14,NA,0.304347826,0.78,10,0.63,1,6,69,wronganswer,886,target,visual,v_de,Ja,Lichtbruine,Verhulling,NA,3.967,3.6,0.502173913,NA,0.7,0.9,0,11,NA,0.304347826,0.78,10,0.84,1,6.336825731
36,Selfpaced,N,F,Y,3,auditory2visual,5,186,rightanswer,286,context,auditory,a_de,Nee,Stormachtige,Eis,0.9187,3.656,2.6,0.232600733,NA,0.131868132,1.45,1,12,NA,0.333333333,2.64,3,2.045,13,6,74,rightanswer,233,target,visual,v_de,Ja,Levende,Kip,0.76092,3.486,3.9,0.079850746,NA,0.1,2.83,5,7,NA,0.059701492,2.96,3,2.895,18,0
37,Selfpaced,N,F,Y,3,haptic2visual,5,120,wronganswer,1280,context,haptic,h_het,Ja,Hard,Heft,0.890188,2.938,3.055,0.238095238,NA,0.142857143,3.6,12,4,NA,0.333333333,2.03,4,2.815,8,6,11,rightanswer,1491,target,visual,v_de,Ja,Droge,Weerstand,1.0069,3.671,3.065,0.309200604,NA,0.461538462,2.5,4,5,NA,0.156862745,2.36,9,2.43,0,10.33439296
38,Selfpaced,Y,F,Y,3,visual2visual,5,158,wronganswer,841,context,visual,v_het,Ja,Klonterig,Type,0.708814,2.794,2.63,0.271794872,NA,0.276923077,0.78,0,9,NA,0.266666667,3.08,4,1.93,5,6,38,rightanswer,526,target,visual,v_de,Nee,Elastische,Boerderij,1.00684,3.982,3.8,0.15275967,NA,0.254237288,1.04,1,10,NA,0.051282051,2.77,9,1.905,0,0
39,Selfpaced,N,M,Y,3,visual2visual,5,150,wronganswer,3743,context,visual,v_het,Nee,Weinig,Fortuin,0.816837,2.214,1.965,0.229166667,NA,0.208333333,3.49,3,6,NA,0.25,2.69,7,3.09,0,6,72,wronganswer,2049,target,visual,v_het,Ja,Grotesk,Effect,0.94522,3.571,2.075,0.635888502,NA,0.857142857,1.34,1,7,NA,0.414634146,2.77,6,2.055,0,5.834810737
40,Quick,N,F,Y,3,haptic2visual,5,144,rightanswer,350,context,haptic,h_het,Nee,Koud,Vilt,0.738496,4.1,4.135,0.436111111,NA,0.472222222,2.84,8,5,NA,0.4,1.4,4,2.12,11,6,12,wronganswer,459,target,visual,v_de,Ja,Gesmolten,Weerstand,0.945311,3.671,2.33,0.31372549,NA,0.470588235,2.18,0,9,NA,0.156862745,2.36,9,2.27,0,0
41,Quick,N,F,N,3,visual2visual,5,168,rightanswer,1457,context,visual,v_de,Nee,Gevorkte,Race,0.945167,4.048,4.47,0.353144655,NA,0.366666667,0.6,0,8,NA,0.339622642,2.5,4,1.55,9,6,63,rightanswer,887,target,visual,v_het,Nee,Gevormd,Oosten,0.945895,2.762,3.27,0.394009217,NA,0.14516129,2.29,0,7,NA,0.642857143,2.71,6,2.5,5,4.718498871
42,Selfpaced,N,F,Y,3,visual2visual,5,158,wronganswer,747,context,visual,v_het,Ja,Klonterig,Type,0.708814,2.794,2.63,0.271794872,NA,0.276923077,0.78,0,9,NA,0.266666667,3.08,4,1.93,5,6,56,rightanswer,935,target,visual,v_het,Ja,Transparant,Bezit,1.05536,3.777,2.735,0.353528154,NA,0.608695652,1.38,0,11,NA,0.098360656,3.16,5,2.27,4,0
44,Quick,N,F,Y,3,haptic2visual,5,125,rightanswer,940,context,haptic,h_het,Nee,Pulserend,Heft,NA,2.393,2.71,0.256410256,NA,0.179487179,0.48,0,9,NA,0.333333333,2.03,4,1.255,8,6,19,wronganswer,525,target,visual,v_de,Ja,Jankende,Proportie,NA,3.013,1.8,0.346082779,NA,0.207317073,1.36,2,8,NA,0.484848485,1.32,9,1.34,1,0
45,Quick,N,F,Y,3,auditory2visual,5,193,wronganswer,974,context,auditory,a_de,Ja,Sissende,Laster,NA,2.95,2.33,0.309615385,NA,0.369230769,1.04,0,8,NA,0.25,1.84,6,1.44,4,6,96,wronganswer,1277,target,visual,v_de,Ja,Verouderde,Pels,1.08048,3.188,3.7,0.406759907,NA,0.454545455,1.18,0,10,NA,0.358974359,1.26,4,1.22,9,0
46,Selfpaced,N,F,Y,3,haptic2visual,5,119,rightanswer,1067,context,haptic,h_het,Ja,Ruw,Contact,0.850669,3.357,3.135,0.228896104,NA,0.321428571,2.49,11,3,NA,0.136363636,3.37,7,2.93,2,6,24,rightanswer,863,target,visual,v_het,Nee,Onrijp,Dek,1.0097,3.063,3.73,0.367860188,NA,0.431372549,0.85,0,6,NA,0.304347826,2.8,3,1.825,22,0
47,Selfpaced,N,F,Y,3,auditory2visual,5,213,wronganswer,1269,context,auditory,a_het,Ja,Hoorbaar,Plan,0.964573,3.444,2.9,0.513621795,NA,0.770833333,1.15,0,8,NA,0.256410256,3.47,4,2.31,7,6,83,rightanswer,772,target,visual,v_de,Ja,Metalen,Plug,0.86532,3.75,4.1,0.3,NA,0.2,2.38,1,7,NA,0.4,1.56,4,1.97,3,0
48,Selfpaced,N,F,Y,3,visual2visual,5,166,wronganswer,686,context,visual,v_de,Ja,Stomme,Plug,0.769553,2.85,3.065,0.325,NA,0.25,3.43,10,6,NA,0.4,1.56,4,2.495,3,6,51,wronganswer,746,target,visual,v_de,Nee,Aardse,Magie,0.839526,2.286,1.97,0.312807882,NA,0.142857143,2.18,6,6,NA,0.482758621,2.75,5,2.465,1,0
49,Quick,N,M,Y,3,haptic2visual,5,143,rightanswer,360,context,haptic,h_de,Ja,Tintelende,Spier,NA,3.795,4.67,0.415806927,NA,0.543478261,0.78,1,10,NA,0.288135593,2.04,5,1.41,4,6,7,wronganswer,679,target,visual,v_het,Ja,Schriel,Loon,0.913305,3.369,2.7,0.277219873,NA,0.395348837,1.04,0,7,NA,0.159090909,2.8,4,1.92,13,4.060443011
50,Quick,N,M,Y,3,haptic2visual,5,117,wronganswer,774,context,haptic,h_de,Ja,Slijmerige,Vloeistof,0.650393,4,3.735,0.222513743,NA,0.289855072,1.75,1,10,NA,0.155172414,2.21,9,1.98,0,6,18,rightanswer,562,target,visual,v_het,Ja,Somber,Type,0.926306,2.516,2.03,0.333333334,NA,0.4,2.43,2,6,NA,0.266666667,3.08,4,2.755,5,0
1,Quick,N,F,Y,4,visual2visual,7,147,wronganswer,1269,context,visual,v_het,Nee,Druk,Loon,0.895827,2.848,3.035,0.188636364,3,0.218181818,3.65,7,4,3.07,0.159090909,2.8,4,3.225,13,8,65,wronganswer,711,target,visual,v_het,Ja,Bruin,Type,0.708907,2.794,2.765,0.442857143,3.8,0.619047619,2.68,3,5,1.73,0.266666667,3.08,4,2.88,5,5.198497031
2,Quick,N,F,Y,4,visual2visual,7,166,rightanswer,582,context,visual,v_de,Ja,Stomme,Plug,0.769553,2.85,3.065,0.325,NA,0.25,3.43,10,6,NA,0.4,1.56,4,2.495,3,8,44,rightanswer,734,target,visual,v_de,Ja,Zwakke,Worp,0.819115,3.402,3.17,0.255578094,NA,0.275862069,2.74,4,6,NA,0.235294118,2.23,4,2.485,4,0
3,Quick,N,F,Y,4,visual2visual,7,162,rightanswer,971,context,visual,v_het,Nee,Rot,Mandaat,1.07219,2.396,2.965,0.294117647,NA,0.470588235,3.33,24,3,NA,0.117647059,1.49,7,2.41,0,8,64,rightanswer,1270,target,visual,v_de,Nee,Rechthoekige,Sierlijkheid,0.610794,3.884,4,0.417568543,NA,0.53968254,1,0,12,NA,0.295454545,0.6,12,0.8,0,0
4,Quick,N,F,Y,4,visual2visual,7,177,rightanswer,1056,context,visual,v_de,Ja,Bolvormige,Formatie,0.83644,3.413,2.9,0.432432432,NA,0.486486486,0.48,0,10,NA,0.378378378,2.04,8,1.26,0,8,49,rightanswer,862,target,visual,v_het,Nee,Mistig,Loon,0.934111,3.286,3.47,0.308116883,NA,0.457142857,1.7,2,6,NA,0.159090909,2.8,4,2.25,13,0
5,Quick,Y,F,Y,4,auditory2visual,7,185,wronganswer,1602,context,auditory,a_de,Nee,Krijsende,Dichter,NA,2.667,2.87,0.22718254,NA,0.232142857,1.32,2,9,NA,0.222222222,2.96,7,2.14,6,8,99,rightanswer,1609,target,visual,v_de,Nee,Gloeiende,Prijs,0.941964,3.775,3.24,0.425925926,NA,0.5,1.68,4,9,NA,0.351851852,3.38,5,2.53,3,0
6,,N,F,Y,4,haptic2visual,7,115,rightanswer,616,context,haptic,h_de,Nee,Jeukende,Schok,NA,2.857,3.33,0.205882353,NA,0.333333333,0.95,1,8,NA,0.078431372,2.62,5,1.785,6,8,7,rightanswer,611,target,visual,v_het,Ja,Schriel,Loon,0.913305,3.369,2.7,0.277219873,NA,0.395348837,1.04,0,7,NA,0.159090909,2.8,4,1.92,13,0
8,,N,F,Y,4,visual2visual,7,153,rightanswer,605,context,visual,v_het,Ja,Bloemrijk,Bezit,1.06813,3.714,2.715,0.249180328,NA,0.4,0.7,0,9,NA,0.098360656,3.16,5,1.93,4,8,45,wronganswer,651,target,visual,v_de,Ja,Kille,Aantekening,0.881481,2.443,3.37,0.258169935,NA,0.294117647,1.91,20,5,NA,0.222222222,1.76,11,1.835,0,0
9,,N,F,Y,4,visual2visual,7,150,wronganswer,1059,context,visual,v_het,Nee,Weinig,Fortuin,0.816837,2.214,1.965,0.229166667,NA,0.208333333,3.49,3,6,NA,0.25,2.69,7,3.09,0,8,42,rightanswer,1410,target,visual,v_het,Ja,Smakeloos,Moment,0.925003,1.986,1.9,0.22195122,NA,0.2,1.75,0,9,NA,0.243902439,3.7,6,2.725,0,7.973844376
10,,N,F,Y,4,visual2visual,7,155,wronganswer,385,context,visual,v_de,Ja,Mottige,Verhulling,NA,2.867,2.07,0.255639098,NA,0.142857143,0.6,1,7,NA,0.368421053,0.78,10,0.69,1,8,47,wronganswer,516,target,visual,v_de,Ja,Bloedige,Worp,0.838693,3.314,3.835,0.295066414,NA,0.35483871,1.85,2,8,NA,0.235294118,2.23,4,2.04,4,0
11,Quick,N,F,Y,4,visual2visual,7,166,rightanswer,855,context,visual,v_de,Ja,Stomme,Plug,0.769553,2.85,3.065,0.325,NA,0.25,3.43,10,6,NA,0.4,1.56,4,2.495,3,8,70,wronganswer,738,target,visual,v_het,Nee,Onbeweeglijk,Gebaar,0.872001,3.722,3.03,0.51532567,NA,0.444444444,1.23,0,12,NA,0.586206896,2.48,6,1.855,4,5.402677382
12,Quick,N,M,Y,4,haptic2visual,7,111,rightanswer,717,context,haptic,h_het,Nee,Gewichtloos,Geweer,0.774708,3.214,3.83,0.177732794,NA,0.263157895,1.28,0,11,NA,0.092307692,3.06,6,2.17,3,8,12,wronganswer,1044,target,visual,v_de,Ja,Gesmolten,Weerstand,0.945311,3.671,2.33,0.31372549,NA,0.470588235,2.18,0,9,NA,0.156862745,2.36,9,2.27,0,0
13,Quick,N,F,Y,4,visual2visual,7,175,wronganswer,731,context,visual,v_de,Nee,Kleine,Reus,0.710016,3.679,3.5,0.404761905,NA,0.476190476,3.67,4,6,NA,0.333333333,2.29,4,2.98,7,8,55,wronganswer,862,target,visual,v_de,Nee,Sterke,Wacht,0.683177,3.027,2.965,0.350793651,NA,0.301587302,3.08,7,6,NA,0.4,3.87,5,3.475,10,10.10805972
14,Selfpaced,N,F,Y,4,auditory2visual,7,191,rightanswer,1070,context,auditory,a_het,Nee,Schreeuwend,Compliment,0.977691,3.444,3.035,0.308147397,NA,0.224137931,2.02,2,11,NA,0.392156863,2.59,10,2.305,0,8,99,wronganswer,919,target,visual,v_de,Nee,Gloeiende,Prijs,0.941964,3.775,3.24,0.425925926,NA,0.5,1.68,4,9,NA,0.351851852,3.38,5,2.53,3,0
15,Selfpaced,N,F,Y,4,visual2visual,7,168,rightanswer,610,context,visual,v_de,Nee,Gevorkte,Race,0.945167,4.048,4.47,0.353144655,NA,0.366666667,0.6,0,8,NA,0.339622642,2.5,4,1.55,9,8,67,rightanswer,1411,target,visual,v_de,Nee,Bronzen,Boete,0.985813,2.96,3.3,0.480107527,NA,0.766666667,1.61,2,7,NA,0.193548387,2.47,5,2.04,8,0
16,Selfpaced,N,F,Y,4,auditory2visual,7,193,wronganswer,1017,context,auditory,a_de,Ja,Sissende,Laster,NA,2.95,2.33,0.309615385,NA,0.369230769,1.04,0,8,NA,0.25,1.84,6,1.44,4,8,96,rightanswer,1193,target,visual,v_de,Ja,Verouderde,Pels,1.08048,3.188,3.7,0.406759907,NA,0.454545455,1.18,0,10,NA,0.358974359,1.26,4,1.22,9,0
17,Selfpaced,N,F,Y,4,auditory2visual,7,210,rightanswer,552,context,auditory,a_het,Ja,Geluidloos,Antwoord,0.810143,4,2.835,0.470746108,NA,0.52173913,1.11,0,10,NA,0.419753086,3.53,8,2.32,1,8,86,rightanswer,470,target,visual,v_de,Nee,Glimmende,Ziekte,1.03236,3.7,3.5,0.33418223,NA,0.580645161,1.94,2,9,NA,0.087719298,2.98,6,2.46,3,0
18,Selfpaced,N,F,Y,4,visual2visual,7,170,rightanswer,503,context,visual,v_de,Nee,Flikkerende,Socialist,NA,3.025,1.93,0.365418119,NA,0.535714286,1.18,1,11,NA,0.195121951,1.46,9,1.32,0,8,56,wronganswer,596,target,visual,v_het,Ja,Transparant,Bezit,1.05536,3.777,2.735,0.353528154,NA,0.608695652,1.38,0,11,NA,0.098360656,3.16,5,2.27,4,0
19,Selfpaced,N,F,Y,4,visual2visual,7,150,wronganswer,1268,context,visual,v_het,Nee,Weinig,Fortuin,0.816837,2.214,1.965,0.229166667,NA,0.208333333,3.49,3,6,NA,0.25,2.69,7,3.09,0,8,70,rightanswer,2624,target,visual,v_het,Nee,Onbeweeglijk,Gebaar,0.872001,3.722,3.03,0.51532567,NA,0.444444444,1.23,0,12,NA,0.586206896,2.48,6,1.855,4,3.828641396
20,Selfpaced,N,F,Y,4,haptic2visual,7,112,rightanswer,498,context,haptic,h_de,Nee,Schurende,Spier,NA,3.357,4.67,0.195349848,NA,0.102564103,0.48,1,9,NA,0.288135593,2.04,5,1.26,4,8,19,wronganswer,302,target,visual,v_de,Ja,Jankende,Proportie,NA,3.013,1.8,0.346082779,NA,0.207317073,1.36,2,8,NA,0.484848485,1.32,9,1.34,1,0
21,Selfpaced,N,F,Y,4,auditory2visual,7,204,rightanswer,1001,context,auditory,a_de,Nee,Grommende,Economie,NA,3.771,1.53,0.412207358,NA,0.47826087,0.95,1,9,NA,0.346153846,2.44,8,1.695,0,8,84,rightanswer,1013,target,visual,v_de,Ja,Vieze,Uitvinding,0.873652,3.671,2.6,0.31219865,NA,0.558823529,2.89,10,5,NA,0.065573771,2.18,10,2.535,0,0
22,Selfpaced,N,M,Y,4,visual2visual,7,153,rightanswer,636,context,visual,v_het,Ja,Bloemrijk,Bezit,1.06813,3.714,2.715,0.249180328,NA,0.4,0.7,0,9,NA,0.098360656,3.16,5,1.93,4,8,59,rightanswer,573,target,visual,v_de,Nee,Stompe,Wacht,0.850451,3.214,3.445,0.366666667,NA,0.333333333,0.85,5,6,NA,0.4,3.87,5,2.36,10,0
23,Selfpaced,N,F,Y,4,haptic2visual,7,122,rightanswer,1005,context,haptic,h_het,Ja,Broos,Bot,0.873392,3.482,3.87,0.243220339,NA,0.3,1.26,6,5,NA,0.186440678,2.71,3,1.985,29,8,4,wronganswer,974,target,visual,v_de,Ja,Beschimmelde,Levering,0.87933,3.333,3.335,0.272727273,NA,0.5,1.2,0,12,NA,0.045454546,2.19,8,1.695,1,0
24,Selfpaced,Y,M,Y,4,visual2visual,7,150,wronganswer,531,context,visual,v_het,Nee,Weinig,Fortuin,0.816837,2.214,1.965,0.229166667,NA,0.208333333,3.49,3,6,NA,0.25,2.69,7,3.09,0,8,40,rightanswer,732,target,visual,v_de,Ja,Smerige,Boerderij,0.787197,3.691,3.765,0.18005279,NA,0.308823529,2.94,3,7,NA,0.051282051,2.77,9,2.855,0,5.799092654
26,Quick,N,F,Y,4,visual2visual,7,156,rightanswer,452,context,visual,v_de,Ja,Onmetelijke,Levering,1.02835,2.958,2.335,0.260822511,NA,0.476190476,1.26,0,11,NA,0.045454546,2.19,8,1.725,1,8,58,wronganswer,443,target,visual,v_de,Ja,Bleke,Ziekte,0.818318,3.6,3.63,0.354204477,NA,0.620689655,1.92,4,5,NA,0.087719298,2.98,6,2.45,3,0
27,Quick,Y,F,Y,4,visual2visual,7,160,rightanswer,765,context,visual,v_de,Ja,Zwarte,Kip,0.88176,3.73,4.57,0.284567727,NA,0.509433962,3.33,4,6,NA,0.059701492,2.96,3,3.145,18,8,40,rightanswer,469,target,visual,v_de,Ja,Smerige,Boerderij,0.787197,3.691,3.765,0.18005279,NA,0.308823529,2.94,3,7,NA,0.051282051,2.77,9,2.855,0,7.601402335
28,Quick,N,F,Y,4,auditory2visual,7,212,wronganswer,790,context,auditory,a_het,Ja,Zoemend,Advies,NA,4.59,1.87,0.506112145,NA,0.603773585,0.85,0,7,NA,0.408450704,3.04,6,1.945,0,8,102,wronganswer,733,target,visual,v_de,Nee,Groene,Mist,0.770451,4.057,4.365,0.503088538,NA,0.580645161,2.94,7,6,NA,0.425531915,3.16,4,3.05,15,0
29,Quick,N,F,Y,4,haptic2visual,7,109,rightanswer,1574,context,haptic,h_het,Ja,Gebroken,Bot,0.552381,3.135,4,0.150597388,NA,0.114754098,3.31,3,8,NA,0.186440678,2.71,3,3.01,29,8,11,,2600,target,visual,v_de,Ja,Droge,Weerstand,1.0069,3.671,3.065,0.309200604,NA,0.461538462,2.5,4,5,NA,0.156862745,2.36,9,2.43,0,6.69950034
30,Quick,N,M,Y,4,haptic2visual,7,141,rightanswer,1140,context,haptic,h_het,Ja,Koel,Heft,0.866279,2.75,3.055,0.395833333,NA,0.458333333,2.52,17,4,NA,0.333333333,2.03,4,2.275,8,8,14,rightanswer,672,target,visual,v_de,Nee,Diepe,Plug,0.914433,3.5,3.6,0.326666667,NA,0.253333333,2.69,10,5,NA,0.4,1.56,4,2.125,3,11.04268181
31,Quick,Y,F,Y,4,auditory2visual,7,207,wronganswer,601,context,auditory,a_de,Ja,Piepende,Aankondiging,NA,3.83,2.2,0.451495727,NA,0.422222222,1.08,1,8,NA,0.480769231,2.06,12,1.57,0,8,73,rightanswer,678,target,visual,v_de,Nee,Pijnlijke,Levering,0.980362,2.611,3.035,0.046536797,NA,0.047619048,2.4,1,9,NA,0.045454546,2.19,8,2.295,1,0
32,Quick,N,F,N,4,auditory2visual,7,214,rightanswer,650,context,auditory,a_het,Ja,Schel,Geluid,0.618908,3.619,3.27,0.520108696,NA,0.475,1,10,5,NA,0.565217391,3.14,6,2.07,4,8,91,rightanswer,866,target,visual,v_de,Nee,Vage,Plug,0.958488,3.05,3.1,0.348148148,NA,0.296296296,2.18,14,4,NA,0.4,1.56,4,1.87,3,4.33073334
34,Selfpaced,Y,M,Y,4,haptic2visual,7,125,rightanswer,795,context,haptic,h_het,Nee,Pulserend,Heft,NA,2.393,2.71,0.256410256,NA,0.179487179,0.48,0,9,NA,0.333333333,2.03,4,1.255,8,8,17,rightanswer,2067,target,visual,v_de,Ja,Ondiepe,Kwestie,0.879064,2.938,2.365,0.332810867,NA,0.424242424,1.54,1,7,NA,0.24137931,3.03,7,2.285,1,0
35,Selfpaced,N,M,Y,4,auditory2visual,7,203,wronganswer,1125,context,auditory,a_het,Ja,Luid,Welkom,0.868225,3.971,2.765,0.405092593,NA,0.625,2.54,11,4,NA,0.185185185,3.57,6,3.055,2,8,86,rightanswer,1141,target,visual,v_de,Nee,Glimmende,Ziekte,1.03236,3.7,3.5,0.33418223,NA,0.580645161,1.94,2,9,NA,0.087719298,2.98,6,2.46,3,6.204557763
36,Selfpaced,N,F,Y,4,auditory2visual,7,204,rightanswer,170,context,auditory,a_de,Nee,Grommende,Economie,NA,3.771,1.53,0.412207358,NA,0.47826087,0.95,1,9,NA,0.346153846,2.44,8,1.695,0,8,79,rightanswer,375,target,visual,v_de,Nee,Vallende,Verhulling,NA,3.517,NA,0.26905703,NA,0.233766234,1.99,2,8,NA,0.304347826,0.78,10,1.385,1,0
37,Selfpaced,N,F,Y,4,visual2visual,7,156,rightanswer,1282,context,visual,v_de,Ja,Onmetelijke,Levering,1.02835,2.958,2.335,0.260822511,NA,0.476190476,1.26,0,11,NA,0.045454546,2.19,8,1.725,1,8,43,wronganswer,1055,target,visual,v_het,Nee,Koortsig,Fortuin,1.05603,2.414,2.635,0.25,NA,0.25,1.42,0,8,NA,0.25,2.69,7,2.055,0,0
38,Selfpaced,Y,F,Y,4,haptic2visual,7,137,rightanswer,745,context,haptic,h_de,Ja,Glibberige,Rots,0.709194,4.107,4.13,0.356598017,NA,0.362318841,1.53,1,10,NA,0.350877193,2.62,4,2.075,8,8,27,rightanswer,830,target,visual,v_de,Nee,Gebogen,Gelegenheid,0.96045,3.151,2.835,0.383802817,NA,0.267605634,2.04,8,7,NA,0.5,2.75,11,2.395,1,3.784189634
39,Selfpaced,N,M,Y,4,auditory2visual,7,199,wronganswer,1647,context,auditory,a_de,Nee,Blaffende,Felicitatie,NA,4.295,2.67,0.374603175,NA,0.471428571,1.34,2,9,NA,0.277777778,1.2,11,1.27,1,8,89,rightanswer,2504,target,visual,v_de,Nee,Vlezige,Huur,0.947536,3.086,2.965,0.342320262,NA,0.361111111,1.04,0,7,NA,0.323529412,2.95,4,1.995,9,0
40,Quick,N,F,Y,4,visual2visual,7,172,wronganswer,562,context,visual,v_de,Nee,Langgerekte,Verbeelding,0.862372,3.821,2.3,0.37340302,NA,0.380952381,0.48,2,11,NA,0.365853659,2.49,11,1.485,0,8,65,wronganswer,316,target,visual,v_het,Ja,Bruin,Type,0.708907,2.794,2.765,0.442857143,NA,0.619047619,2.68,3,5,NA,0.266666667,3.08,4,2.88,5,5.472270674
41,Quick,N,F,N,4,visual2visual,7,174,wronganswer,553,context,visual,v_de,Ja,Ruige,Pupil,0.89657,3.813,3.265,0.391598916,NA,0.222222222,2.09,5,5,NA,0.56097561,1.66,5,1.875,0,8,49,rightanswer,709,target,visual,v_het,Nee,Mistig,Loon,0.934111,3.286,3.47,0.308116883,NA,0.457142857,1.7,2,6,NA,0.159090909,2.8,4,2.25,13,0
42,Selfpaced,N,F,Y,4,auditory2visual,7,191,wronganswer,695,context,auditory,a_het,Nee,Schreeuwend,Compliment,0.977691,3.444,3.035,0.308147397,NA,0.224137931,2.02,2,11,NA,0.392156863,2.59,10,2.305,0,8,106,rightanswer,587,target,visual,v_de,Nee,Fuchsia,Eigenaar,0.94063,3.902,3.735,0.577106519,NA,0.918918919,1,0,7,NA,0.235294118,3.02,8,2.01,1,0
44,Quick,N,F,Y,4,visual2visual,7,166,wronganswer,359,context,visual,v_de,Ja,Stomme,Plug,0.769553,2.85,3.065,0.325,NA,0.25,3.43,10,6,NA,0.4,1.56,4,2.495,3,8,42,rightanswer,725,target,visual,v_het,Ja,Smakeloos,Moment,0.925003,1.986,1.9,0.22195122,NA,0.2,1.75,0,9,NA,0.243902439,3.7,6,2.725,0,4.779123493
45,Quick,N,F,Y,4,haptic2visual,7,125,rightanswer,1319,context,haptic,h_het,Nee,Pulserend,Heft,NA,2.393,2.71,0.256410256,NA,0.179487179,0.48,0,9,NA,0.333333333,2.03,4,1.255,8,8,15,rightanswer,1459,target,visual,v_de,Nee,Betoverende,Plug,0.938647,2.85,3.2,0.330434783,NA,0.260869565,1.72,2,11,NA,0.4,1.56,4,1.64,3,5.379897354
46,Selfpaced,N,F,Y,4,haptic2visual,7,113,rightanswer,1152,context,haptic,h_het,Nee,Kietelend,Pistool,NA,4.089,4.87,0.2,NA,0.307692308,0.6,1,9,NA,0.092307692,3.23,7,1.915,0,8,35,rightanswer,851,target,visual,v_het,Nee,Geblokt,Oosten,1.02688,3.151,3.27,0.528975742,NA,0.41509434,1.11,1,7,NA,0.642857143,2.71,6,1.91,5,0
47,Selfpaced,N,F,Y,4,visual2visual,7,164,rightanswer,739,context,visual,v_het,Nee,Nevelig,Mandaat,0.885476,2.183,2.7,0.30020284,NA,0.482758621,0.3,0,7,NA,0.117647059,1.49,7,0.895,0,8,54,wronganswer,787,target,visual,v_de,Nee,Fonkelende,Verhulling,NA,3.367,3.87,0.339673913,NA,0.375,1.3,1,10,NA,0.304347826,0.78,10,1.04,1,0
48,Selfpaced,N,F,Y,4,auditory2visual,7,197,wronganswer,801,context,auditory,a_het,Nee,Lachend,Wantrouwen,0.921945,3.829,2.9,0.34375,NA,0.5,2.03,16,7,NA,0.1875,1.98,10,2.005,1,8,94,wronganswer,588,target,visual,v_het,Ja,Modderig,Sterven,0.856102,3.6,3.47,0.372710623,NA,0.435897436,1.42,1,8,NA,0.30952381,3.53,7,2.475,5,0
49,Quick,N,M,Y,4,haptic2visual,7,129,rightanswer,594,context,haptic,h_de,Nee,Plakkende,Spier,NA,3.657,4.67,0.263115416,NA,0.238095238,0.48,2,9,NA,0.288135593,2.04,5,1.26,4,8,12,wronganswer,689,target,visual,v_de,Ja,Gesmolten,Weerstand,0.945311,3.671,2.33,0.31372549,NA,0.470588235,2.18,0,9,NA,0.156862745,2.36,9,2.27,0,0
50,Quick,N,M,Y,4,auditory2visual,7,185,wronganswer,816,context,auditory,a_de,Nee,Krijsende,Dichter,NA,2.667,2.87,0.22718254,NA,0.232142857,1.32,2,9,NA,0.222222222,2.96,7,2.14,6,8,84,rightanswer,664,target,visual,v_de,Ja,Vieze,Uitvinding,0.873652,3.671,2.6,0.31219865,NA,0.558823529,2.89,10,5,NA,0.065573771,2.18,10,2.535,0,5.966146739
1,Quick,N,F,Y,5,haptic2visual,9,119,wronganswer,2008,context,haptic,h_het,Ja,Ruw,Contact,0.850669,3.357,3.135,0.228896104,3.87,0.321428571,2.49,11,3,2.4,0.136363636,3.37,7,2.93,2,10,3,wronganswer,516,target,visual,v_de,Nee,Barstende,Veiligheid,NA,2.889,1.93,0.212937063,NA,0.107692308,1.57,2,9,1.93,0.318181818,3.13,10,2.35,3,0
2,Quick,N,F,Y,5,visual2visual,9,150,rightanswer,970,context,visual,v_het,Nee,Weinig,Fortuin,0.816837,2.214,1.965,0.229166667,NA,0.208333333,3.49,3,6,NA,0.25,2.69,7,3.09,0,10,55,wronganswer,667,target,visual,v_de,Nee,Sterke,Wacht,0.683177,3.027,2.965,0.350793651,NA,0.301587302,3.08,7,6,NA,0.4,3.87,5,3.475,10,10.10123124
3,Quick,N,F,Y,5,visual2visual,9,174,wronganswer,898,context,visual,v_de,Ja,Ruige,Pupil,0.89657,3.813,3.265,0.391598916,NA,0.222222222,2.09,5,5,NA,0.56097561,1.66,5,1.875,0,10,63,rightanswer,947,target,visual,v_het,Nee,Gevormd,Oosten,0.945895,2.762,3.27,0.394009217,NA,0.14516129,2.29,0,7,NA,0.642857143,2.71,6,2.5,5,7.114769448
4,Quick,N,F,Y,5,visual2visual,9,151,wronganswer,1052,context,visual,v_het,Ja,Rommelend,Moment,NA,2.723,1.33,0.231042129,NA,0.218181818,0.6,12,9,NA,0.243902439,3.7,6,2.15,0,10,57,rightanswer,912,target,visual,v_de,Nee,Compacte,Reus,1.01699,2.984,3.435,0.354166667,NA,0.375,1.43,1,8,NA,0.333333333,2.29,4,1.86,7,0
5,Quick,Y,F,Y,5,haptic2visual,9,138,rightanswer,1624,context,haptic,h_het,Nee,Glad,Vilt,0.83905,4.375,4.305,0.362650603,NA,0.325301205,2.17,2,6,NA,0.4,1.4,4,1.785,11,10,2,wronganswer,1430,target,visual,v_de,Ja,Zwoele,Levering,0.973728,2.733,2.865,0.147727273,NA,0.25,1.48,2,6,NA,0.045454546,2.19,8,1.835,1,8.496990484
6,,N,F,Y,5,visual2visual,9,160,rightanswer,622,context,visual,v_de,Ja,Zwarte,Kip,0.88176,3.73,4.57,0.284567727,NA,0.509433962,3.33,4,6,NA,0.059701492,2.96,3,3.145,18,10,52,wronganswer,738,target,visual,v_de,Ja,Lelijke,Prins,0.785819,3.741,2.83,0.319715143,NA,0.465517241,2.84,2,7,NA,0.173913044,2.78,5,2.81,2,8.405367376
8,,N,F,Y,5,visual2visual,9,174,wronganswer,618,context,visual,v_de,Ja,Ruige,Pupil,0.89657,3.813,3.265,0.391598916,NA,0.222222222,2.09,5,5,NA,0.56097561,1.66,5,1.875,0,10,66,rightanswer,1002,target,visual,v_het,Nee,Kleurrijk,Fortuin,0.914891,3.214,2.9,0.447916667,NA,0.645833333,1.76,1,9,NA,0.25,2.69,7,2.225,0,0
9,,N,F,Y,5,haptic2visual,9,117,rightanswer,2584,context,haptic,h_de,Ja,Slijmerige,Vloeistof,0.650393,4,3.735,0.222513743,NA,0.289855072,1.75,1,10,NA,0.155172414,2.21,9,1.98,0,10,9,rightanswer,1447,target,visual,v_de,Ja,Saaie,President,0.934654,2.516,2.53,0.292832168,NA,0.153846154,2.57,7,5,NA,0.431818182,3.07,9,2.82,0,0
10,,N,F,Y,5,haptic2visual,9,129,rightanswer,373,context,haptic,h_de,Nee,Plakkende,Spier,NA,3.657,4.67,0.263115416,NA,0.238095238,0.48,2,9,NA,0.288135593,2.04,5,1.26,4,10,21,rightanswer,333,target,visual,v_het,Nee,Amber,Sterven,0.779902,2.857,3.725,0.364439325,NA,0.419354839,1.97,1,5,NA,0.30952381,3.53,7,2.75,5,4.890349128
11,Quick,N,F,Y,5,visual2visual,9,172,wronganswer,1089,context,visual,v_de,Nee,Langgerekte,Verbeelding,0.862372,3.821,2.3,0.37340302,NA,0.380952381,0.48,2,11,NA,0.365853659,2.49,11,1.485,0,10,61,rightanswer,711,target,visual,v_de,Nee,Gevouwen,Situatie,NA,3.571,2.27,0.383951407,NA,0.485294118,1.51,1,8,NA,0.282608696,3.33,8,2.42,1,4.477336814
12,Quick,N,M,Y,5,auditory2visual,9,203,rightanswer,607,context,auditory,a_het,Ja,Luid,Welkom,0.868225,3.971,2.765,0.405092593,NA,0.625,2.54,11,4,NA,0.185185185,3.57,6,3.055,2,10,80,rightanswer,986,target,visual,v_de,Nee,Pure,Plug,0.995621,2.875,3.23,0.271428572,NA,0.142857143,2.74,8,4,NA,0.4,1.56,4,2.15,3,6.033086222
13,Quick,N,F,Y,5,haptic2visual,9,127,rightanswer,698,context,haptic,h_de,Ja,Zachte,Spier,0.832062,3.982,4.2,0.262488849,NA,0.236842105,2.59,14,6,NA,0.288135593,2.04,5,2.315,4,10,25,rightanswer,623,target,visual,v_de,Ja,Schone,President,0.920504,3.471,2.73,0.370230079,NA,0.308641975,2.82,4,6,NA,0.431818182,3.07,9,2.945,0,10.58961012
14,Selfpaced,N,F,Y,5,visual2visual,9,154,rightanswer,1006,context,visual,v_het,Nee,Gewelfd,Moment,0.876797,2.702,2.4,0.250522648,NA,0.257142857,0.3,1,7,NA,0.243902439,3.7,6,2,0,10,62,rightanswer,758,target,visual,v_de,Nee,Pluizige,Boete,0.902354,3.571,3.435,0.385531136,NA,0.461538462,1.46,0,8,NA,0.30952381,2.47,5,1.965,8,0
15,Selfpaced,N,F,Y,5,haptic2visual,9,117,rightanswer,623,context,haptic,h_de,Ja,Slijmerige,Vloeistof,0.650393,4,3.735,0.222513743,NA,0.289855072,1.75,1,10,NA,0.155172414,2.21,9,1.98,0,10,30,rightanswer,742,target,visual,v_de,Nee,Beige,Hoeveelheid,0.950069,3.548,3.265,0.420833334,NA,0.541666667,1.76,1,5,NA,0.3,2.5,11,2.13,0,0
16,Selfpaced,N,F,Y,5,auditory2visual,9,212,wronganswer,1516,context,auditory,a_het,Ja,Zoemend,Advies,NA,4.59,1.87,0.506112145,NA,0.603773585,0.85,0,7,NA,0.408450704,3.04,6,1.945,0,10,98,wronganswer,1241,target,visual,v_het,Nee,Behaard,Beheer,1.04916,2.825,3.2,0.420930233,NA,0.441860465,1.45,6,7,NA,0.4,1.95,6,1.7,5,0
17,Selfpaced,N,F,Y,5,visual2visual,9,161,wronganswer,535,context,visual,v_de,Nee,Dode,Levering,0.939932,2.556,3.265,0.287433156,NA,0.529411765,3.24,19,4,NA,0.045454546,2.19,8,2.715,1,10,40,rightanswer,663,target,visual,v_de,Ja,Smerige,Boerderij,0.787197,3.691,3.765,0.18005279,NA,0.308823529,2.94,3,7,NA,0.051282051,2.77,9,2.855,0,4.615120517
18,Selfpaced,N,F,Y,5,visual2visual,9,173,wronganswer,1068,context,visual,v_het,Nee,Licht,Fortuin,0.945551,3.173,3.265,0.38125,NA,0.5125,3.43,10,5,NA,0.25,2.69,7,3.06,0,10,68,rightanswer,440,target,visual,v_de,Nee,Paarse,Vrijheid,1.01049,3.955,2.8,0.497389654,NA,0.790697674,2.15,10,6,NA,0.204081633,3.11,8,2.63,0,12.00897445
19,Selfpaced,N,F,Y,5,auditory2visual,9,215,rightanswer,2513,context,auditory,a_het,Ja,Hese,Verhoor,0.93572,3.159,4.335,0.569157393,NA,0.705882353,1.18,18,4,NA,0.432432433,2.43,7,1.805,4,10,97,rightanswer,1627,target,visual,v_de,Ja,Heldere,Situatie,0.765895,4,3.2,0.411304348,NA,0.54,2.33,7,7,NA,0.282608696,3.33,8,2.83,1,0
20,Selfpaced,N,F,Y,5,auditory2visual,9,210,rightanswer,722,context,auditory,a_het,Ja,Geluidloos,Antwoord,0.810143,4,2.835,0.470746108,NA,0.52173913,1.11,0,10,NA,0.419753086,3.53,8,2.32,1,10,92,rightanswer,604,target,visual,v_het,Ja,Schattig,Moment,0.785329,3.064,1.9,0.367049259,NA,0.490196078,2.96,2,8,NA,0.243902439,3.7,6,3.33,0,0
21,Selfpaced,N,F,Y,5,haptic2visual,9,132,wronganswer,2024,context,haptic,h_de,Nee,Stekelige,Deken,0.795281,3.786,4.465,0.284749035,NA,0.285714286,0.9,0,9,NA,0.283783784,2.6,5,1.75,18,10,33,rightanswer,950,target,visual,v_het,Ja,Elegant,Effect,0.949052,3.238,2.2,0.457317073,NA,0.5,2.31,1,7,NA,0.414634146,2.77,6,2.54,0,0
22,Selfpaced,N,M,Y,5,visual2visual,9,173,rightanswer,1000,context,visual,v_het,Nee,Licht,Fortuin,0.945551,3.173,3.265,0.38125,NA,0.5125,3.43,10,5,NA,0.25,2.69,7,3.06,0,10,72,rightanswer,697,target,visual,v_het,Ja,Grotesk,Effect,0.94522,3.571,2.075,0.635888502,NA,0.857142857,1.34,1,7,NA,0.414634146,2.77,6,2.055,0,0
23,Selfpaced,N,F,Y,5,visual2visual,9,149,rightanswer,1152,context,visual,v_de,Nee,Vuile,Prins,0.938472,2.929,3.7,0.224053296,NA,0.274193548,3.25,10,5,NA,0.173913044,2.78,5,3.015,2,10,54,wronganswer,2405,target,visual,v_de,Nee,Fonkelende,Verhulling,NA,3.367,3.87,0.339673913,NA,0.375,1.3,1,10,NA,0.304347826,0.78,10,1.04,1,0
24,Selfpaced,Y,M,Y,5,auditory2visual,9,186,rightanswer,433,context,auditory,a_de,Nee,Stormachtige,Eis,0.9187,3.656,2.6,0.232600733,NA,0.131868132,1.45,1,12,NA,0.333333333,2.64,3,2.045,13,10,100,wronganswer,541,target,visual,v_de,Ja,Wazige,Verhulling,NA,3.367,3.47,0.47826087,NA,0.652173913,1.51,2,6,NA,0.304347826,0.78,10,1.145,1,0
26,Quick,N,F,Y,5,visual2visual,9,161,wronganswer,261,context,visual,v_de,Nee,Dode,Levering,0.939932,2.556,3.265,0.287433156,NA,0.529411765,3.24,19,4,NA,0.045454546,2.19,8,2.715,1,10,57,wronganswer,552,target,visual,v_de,Nee,Compacte,Reus,1.01699,2.984,3.435,0.354166667,NA,0.375,1.43,1,8,NA,0.333333333,2.29,4,1.86,7,6.190315406
27,Quick,Y,F,Y,5,haptic2visual,9,110,rightanswer,388,context,haptic,h_het,Nee,Drassig,Welzijn,1.02971,3.444,2.73,0.157072369,NA,0.15625,0.78,0,7,NA,0.157894737,2.33,7,1.555,0,10,36,rightanswer,578,target,visual,v_de,Ja,Gouden,Gelegenheid,0.897149,3.529,2.87,0.53125,NA,0.5625,2.95,7,6,NA,0.5,2.75,11,2.85,1,0
28,Quick,N,F,Y,5,visual2visual,9,153,rightanswer,668,context,visual,v_het,Ja,Bloemrijk,Bezit,1.06813,3.714,2.715,0.249180328,NA,0.4,0.7,0,9,NA,0.098360656,3.16,5,1.93,4,10,50,rightanswer,857,target,visual,v_de,Ja,Losse,Levering,0.933941,3.033,3.2,0.311188812,NA,0.576923077,2.47,20,5,NA,0.045454546,2.19,8,2.33,1,0
29,Quick,N,F,Y,5,haptic2visual,9,116,rightanswer,1492,context,haptic,h_de,Nee,Kleverige,Sterkte,0.820183,3.5,2.565,0.215163321,NA,0.323943662,1.32,1,9,NA,0.106382979,2.48,7,1.9,2,10,16,rightanswer,1452,target,visual,v_de,Ja,Lege,Aantekening,0.816074,3.31,3.5,0.331111111,NA,0.44,2.91,13,4,NA,0.222222222,1.76,11,2.335,0,6.102558595
30,Quick,N,M,Y,5,haptic2visual,9,128,rightanswer,772,context,haptic,h_het,Nee,Hitsig,Vilt,0.809776,3.75,3.47,0.2625,NA,0.125,1.46,1,7,NA,0.4,1.4,4,1.43,11,10,11,rightanswer,774,target,visual,v_de,Ja,Droge,Weerstand,1.0069,3.671,3.065,0.309200604,NA,0.461538462,2.5,4,5,NA,0.156862745,2.36,9,2.43,0,6.261491684
31,Quick,Y,F,Y,5,visual2visual,9,171,rightanswer,672,context,visual,v_het,Ja,Vlak,Dek,0.820377,3.738,3.7,0.373104146,NA,0.441860465,3.21,9,4,NA,0.304347826,2.8,3,3.005,22,10,56,rightanswer,671,target,visual,v_het,Ja,Transparant,Bezit,1.05536,3.777,2.735,0.353528154,NA,0.608695652,1.38,0,11,NA,0.098360656,3.16,5,2.27,4,7.248504072
32,Quick,N,F,N,5,haptic2visual,9,110,rightanswer,454,context,haptic,h_het,Nee,Drassig,Welzijn,1.02971,3.444,2.73,0.157072369,NA,0.15625,0.78,0,7,NA,0.157894737,2.33,7,1.555,0,10,11,wronganswer,701,target,visual,v_de,Ja,Droge,Weerstand,1.0069,3.671,3.065,0.309200604,NA,0.461538462,2.5,4,5,NA,0.156862745,2.36,9,2.43,0,0
34,Selfpaced,Y,M,Y,5,auditory2visual,9,214,rightanswer,951,context,auditory,a_het,Ja,Schel,Geluid,0.618908,3.619,3.27,0.520108696,NA,0.475,1,10,5,NA,0.565217391,3.14,6,2.07,4,10,73,wronganswer,1294,target,visual,v_de,Nee,Pijnlijke,Levering,0.980362,2.611,3.035,0.046536797,NA,0.047619048,2.4,1,9,NA,0.045454546,2.19,8,2.295,1,7.738488122
35,Selfpaced,N,M,Y,5,auditory2visual,9,206,rightanswer,1516,context,auditory,a_het,Nee,Kreunend,Gelach,NA,4.882,4,0.416666667,NA,0.5,0.78,1,8,NA,0.333333333,1.95,6,1.365,0,10,93,wronganswer,869,target,visual,v_de,Ja,Miniatuur,Beurs,0.955464,3.1,3.37,0.367857143,NA,0.485714286,1.38,0,9,NA,0.25,2.61,5,1.995,1,5.313205979
36,Selfpaced,N,F,Y,5,auditory2visual,9,189,wronganswer,189,context,auditory,a_het,Ja,Fluisterend,Doel,NA,3.056,2.13,0.300684485,NA,0.389830508,1.3,2,11,NA,0.211538462,3.3,4,2.3,16,10,98,rightanswer,565,target,visual,v_het,Nee,Behaard,Beheer,1.04916,2.825,3.2,0.420930233,NA,0.441860465,1.45,6,7,NA,0.4,1.95,6,1.7,5,0
37,Selfpaced,N,F,Y,5,haptic2visual,9,138,rightanswer,1739,context,haptic,h_het,Nee,Glad,Vilt,0.83905,4.375,4.305,0.362650603,NA,0.325301205,2.17,2,6,NA,0.4,1.4,4,1.785,11,10,17,rightanswer,1107,target,visual,v_de,Ja,Ondiepe,Kwestie,0.879064,2.938,2.365,0.332810867,NA,0.424242424,1.54,1,7,NA,0.24137931,3.03,7,2.285,1,6.552507887
38,Selfpaced,Y,F,Y,5,haptic2visual,9,139,wronganswer,1028,context,haptic,h_het,Ja,Donzig,Zaad,0.672252,3.261,4.065,0.384415585,NA,0.25974026,1.3,13,6,NA,0.509090909,2.33,4,1.815,8,10,9,rightanswer,909,target,visual,v_de,Ja,Saaie,President,0.934654,2.516,2.53,0.292832168,NA,0.153846154,2.57,7,5,NA,0.431818182,3.07,9,2.82,0,4.465908119
39,Selfpaced,N,M,Y,5,auditory2visual,9,198,rightanswer,3578,context,auditory,a_de,Ja,Donderende,Vergadering,NA,3.381,3.27,0.373122834,NA,0.358490566,0.85,4,10,NA,0.387755102,2.93,11,1.89,0,10,97,rightanswer,1196,target,visual,v_de,Ja,Heldere,Situatie,0.765895,4,3.2,0.411304348,NA,0.54,2.33,7,7,NA,0.282608696,3.33,8,2.83,1,0
40,Quick,N,F,Y,5,haptic2visual,9,120,wronganswer,293,context,haptic,h_het,Ja,Hard,Heft,0.890188,2.938,3.055,0.238095238,NA,0.142857143,3.6,12,4,NA,0.333333333,2.03,4,2.815,8,10,28,rightanswer,379,target,visual,v_de,Nee,Groeiende,Wacht,NA,3.527,3.2,0.415384616,NA,0.430769231,1.91,3,9,NA,0.4,3.87,5,2.89,10,8.791790024
41,Quick,N,F,N,5,visual2visual,9,173,rightanswer,922,context,visual,v_het,Nee,Licht,Fortuin,0.945551,3.173,3.265,0.38125,NA,0.5125,3.43,10,5,NA,0.25,2.69,7,3.06,0,10,68,rightanswer,834,target,visual,v_de,Nee,Paarse,Vrijheid,1.01049,3.955,2.8,0.497389654,NA,0.790697674,2.15,10,6,NA,0.204081633,3.11,8,2.63,0,12.00897445
42,Selfpaced,N,F,Y,5,auditory2visual,9,207,rightanswer,1231,context,auditory,a_de,Ja,Piepende,Aankondiging,NA,3.83,2.2,0.451495727,NA,0.422222222,1.08,1,8,NA,0.480769231,2.06,12,1.57,0,10,76,wronganswer,1312,target,visual,v_de,Ja,Krullende,Vrijheid,NA,3.365,1.47,0.213981115,NA,0.223880597,0.85,1,9,NA,0.204081633,3.11,8,1.98,0,0
44,Quick,N,F,Y,5,haptic2visual,9,141,wronganswer,262,context,haptic,h_het,Ja,Koel,Heft,0.866279,2.75,3.055,0.395833333,NA,0.458333333,2.52,17,4,NA,0.333333333,2.03,4,2.275,8,10,15,rightanswer,327,target,visual,v_de,Nee,Betoverende,Plug,0.938647,2.85,3.2,0.330434783,NA,0.260869565,1.72,2,11,NA,0.4,1.56,4,1.64,3,0
45,Quick,N,F,Y,5,haptic2visual,9,127,rightanswer,1489,context,haptic,h_de,Ja,Zachte,Spier,0.832062,3.982,4.2,0.262488849,NA,0.236842105,2.59,14,6,NA,0.288135593,2.04,5,2.315,4,10,27,rightanswer,1285,target,visual,v_de,Nee,Gebogen,Gelegenheid,0.96045,3.151,2.835,0.383802817,NA,0.267605634,2.04,8,7,NA,0.5,2.75,11,2.395,1,8.084562415
46,Selfpaced,N,F,Y,5,visual2visual,9,170,rightanswer,1001,context,visual,v_de,Nee,Flikkerende,Socialist,NA,3.025,1.93,0.365418119,NA,0.535714286,1.18,1,11,NA,0.195121951,1.46,9,1.32,0,10,68,rightanswer,827,target,visual,v_de,Nee,Paarse,Vrijheid,1.01049,3.955,2.8,0.497389654,NA,0.790697674,2.15,10,6,NA,0.204081633,3.11,8,2.63,0,0
47,Selfpaced,N,F,Y,5,visual2visual,9,169,rightanswer,572,context,visual,v_het,Nee,Schitterend,Sterven,0.854525,3.444,2.735,0.361658457,NA,0.413793104,2.99,2,11,NA,0.30952381,3.53,7,3.26,5,10,42,rightanswer,613,target,visual,v_het,Ja,Smakeloos,Moment,0.925003,1.986,1.9,0.22195122,NA,0.2,1.75,0,9,NA,0.243902439,3.7,6,2.725,0,0
48,Selfpaced,N,F,Y,5,visual2visual,9,178,rightanswer,465,context,visual,v_het,Ja,Donker,Moment,0.684565,2.952,2.665,0.439024391,NA,0.634146342,3.28,1,6,NA,0.243902439,3.7,6,3.49,0,10,42,rightanswer,650,target,visual,v_het,Ja,Smakeloos,Moment,0.925003,1.986,1.9,0.22195122,NA,0.2,1.75,0,9,NA,0.243902439,3.7,6,2.725,0,0
49,Quick,N,M,Y,5,visual2visual,9,153,rightanswer,631,context,visual,v_het,Ja,Bloemrijk,Bezit,1.06813,3.714,2.715,0.249180328,NA,0.4,0.7,0,9,NA,0.098360656,3.16,5,1.93,4,10,69,wronganswer,487,target,visual,v_de,Ja,Lichtbruine,Verhulling,NA,3.967,3.6,0.502173913,NA,0.7,0.9,0,11,NA,0.304347826,0.78,10,0.84,1,0
50,Quick,N,M,Y,5,haptic2visual,9,141,wronganswer,659,context,haptic,h_het,Ja,Koel,Heft,0.866279,2.75,3.055,0.395833333,NA,0.458333333,2.52,17,4,NA,0.333333333,2.03,4,2.275,8,10,28,rightanswer,552,target,visual,v_de,Nee,Groeiende,Wacht,NA,3.527,3.2,0.415384616,NA,0.430769231,1.91,3,9,NA,0.4,3.87,5,2.89,10,9.304194947
1,Quick,N,F,Y,6,haptic2visual,11,122,rightanswer,657,context,haptic,h_het,Ja,Broos,Bot,0.873392,3.482,3.87,0.243220339,3.27,0.3,1.26,6,5,4.47,0.186440678,2.71,3,1.985,29,12,15,rightanswer,572,target,visual,v_de,Nee,Betoverende,Plug,0.938647,2.85,3.2,0.330434783,2.27,0.260869565,1.72,2,11,4.13,0.4,1.56,4,1.64,3,0
2,Quick,N,F,Y,6,auditory2visual,11,191,wronganswer,783,context,auditory,a_het,Nee,Schreeuwend,Compliment,0.977691,3.444,3.035,0.308147397,NA,0.224137931,2.02,2,11,NA,0.392156863,2.59,10,2.305,0,12,100,rightanswer,610,target,visual,v_de,Ja,Wazige,Verhulling,NA,3.367,3.47,0.47826087,NA,0.652173913,1.51,2,6,NA,0.304347826,0.78,10,1.145,1,0
3,Quick,N,F,Y,6,auditory2visual,11,192,rightanswer,787,context,auditory,a_de,Ja,Knallende,Herinnering,NA,3.286,1.87,0.309210527,NA,0.368421053,1.38,2,9,NA,0.25,2.8,11,2.09,0,12,83,rightanswer,806,target,visual,v_de,Ja,Metalen,Plug,0.86532,3.75,4.1,0.3,NA,0.2,2.38,1,7,NA,0.4,1.56,4,1.97,3,0
4,Quick,N,F,Y,6,auditory2visual,11,183,rightanswer,987,context,auditory,a_de,Ja,Ritmische,Neiging,0.86689,2.522,2.535,0.19375,NA,0.2,1,0,9,NA,0.1875,2.16,7,1.58,0,12,89,rightanswer,881,target,visual,v_de,Nee,Vlezige,Huur,0.947536,3.086,2.965,0.342320262,NA,0.361111111,1.04,0,7,NA,0.323529412,2.95,4,1.995,9,0
5,Quick,Y,F,Y,6,visual2visual,11,157,rightanswer,1253,context,visual,v_het,Ja,Vreemd,Aspect,0.886507,2.438,1.57,0.270186336,NA,0.15942029,3.51,2,6,NA,0.380952381,2.04,6,2.775,0,12,71,wronganswer,1783,target,visual,v_de,Ja,Hoge,Plug,1.03526,4.05,3.63,0.54375,NA,0.6875,3.19,21,4,NA,0.4,1.56,4,2.375,3,8.616495392
6,,N,F,Y,6,haptic2visual,11,143,rightanswer,608,context,haptic,h_de,Ja,Tintelende,Spier,NA,3.795,4.67,0.415806927,NA,0.543478261,0.78,1,10,NA,0.288135593,2.04,5,1.41,4,12,35,wronganswer,924,target,visual,v_het,Nee,Geblokt,Oosten,1.02688,3.151,3.27,0.528975742,NA,0.41509434,1.11,1,7,NA,0.642857143,2.71,6,1.91,5,0
8,,N,F,Y,6,visual2visual,11,163,wronganswer,1314,context,visual,v_de,Nee,Getande,Boete,0.998269,2.946,3.1,0.29920635,NA,0.288888889,0.7,1,7,NA,0.30952381,2.47,5,1.585,8,12,55,wronganswer,753,target,visual,v_de,Nee,Sterke,Wacht,0.683177,3.027,2.965,0.350793651,NA,0.301587302,3.08,7,6,NA,0.4,3.87,5,3.475,10,4.890349128
9,,N,F,Y,6,haptic2visual,11,133,rightanswer,980,context,haptic,h_het,Nee,Borstelig,Heft,0.898736,3.25,3.155,0.338095238,NA,0.342857143,0.48,0,9,NA,0.333333333,2.03,4,1.255,8,12,25,rightanswer,1189,target,visual,v_de,Ja,Schone,President,0.920504,3.471,2.73,0.370230079,NA,0.308641975,2.82,4,6,NA,0.431818182,3.07,9,2.945,0,0
10,,N,F,Y,6,visual2visual,11,165,rightanswer,485,context,visual,v_de,Nee,Papperige,Wacht,0.717868,2.381,3.235,0.307843137,NA,0.215686274,0.3,0,9,NA,0.4,3.87,5,2.085,10,12,57,rightanswer,670,target,visual,v_de,Nee,Compacte,Reus,1.01699,2.984,3.435,0.354166667,NA,0.375,1.43,1,8,NA,0.333333333,2.29,4,1.86,7,0
11,Quick,N,F,Y,6,auditory2visual,11,184,rightanswer,1229,context,auditory,a_het,Nee,Fluitend,Verleden,NA,2.778,1.33,0.223112536,NA,0.298076923,1.04,2,8,NA,0.148148148,3.3,8,2.17,7,12,99,rightanswer,1190,target,visual,v_de,Nee,Gloeiende,Prijs,0.941964,3.775,3.24,0.425925926,NA,0.5,1.68,4,9,NA,0.351851852,3.38,5,2.53,3,0
12,Quick,N,M,Y,6,visual2visual,11,148,rightanswer,1045,context,visual,v_het,Ja,Wild,Ideaal,0.864252,3.114,2.33,0.209756098,NA,0.219512195,3.82,6,5,NA,0.2,2.44,6,3.13,0,12,67,rightanswer,507,target,visual,v_de,Nee,Bronzen,Boete,0.985813,2.96,3.3,0.480107527,NA,0.766666667,1.61,2,7,NA,0.193548387,2.47,5,2.04,8,6.470799504
13,Quick,N,F,Y,6,haptic2visual,11,138,rightanswer,615,context,haptic,h_het,Nee,Glad,Vilt,0.83905,4.375,4.305,0.362650603,NA,0.325301205,2.17,2,6,NA,0.4,1.4,4,1.785,11,12,29,rightanswer,810,target,visual,v_het,Ja,Tenger,Effect,0.917275,3.671,2.535,0.417843389,NA,0.421052632,1.3,1,6,NA,0.414634146,2.77,6,2.035,0,6.638567789
14,Selfpaced,N,F,Y,6,auditory2visual,11,197,rightanswer,771,context,auditory,a_het,Nee,Lachend,Wantrouwen,0.921945,3.829,2.9,0.34375,NA,0.5,2.03,16,7,NA,0.1875,1.98,10,2.005,1,12,107,rightanswer,954,target,visual,v_de,Ja,Gespikkelde,Pels,0.756941,3.313,4.235,0.602564103,NA,0.846153846,0.78,0,11,NA,0.358974359,1.26,4,1.02,9,0
15,Selfpaced,N,F,Y,6,visual2visual,11,160,wronganswer,677,context,visual,v_de,Ja,Zwarte,Kip,0.88176,3.73,4.57,0.284567727,NA,0.509433962,3.33,4,6,NA,0.059701492,2.96,3,3.145,18,12,63,rightanswer,655,target,visual,v_het,Nee,Gevormd,Oosten,0.945895,2.762,3.27,0.394009217,NA,0.14516129,2.29,0,7,NA,0.642857143,2.71,6,2.5,5,9.195328252
16,Selfpaced,N,F,Y,6,haptic2visual,11,109,rightanswer,1503,context,haptic,h_het,Ja,Gebroken,Bot,0.552381,3.135,4,0.150597388,NA,0.114754098,3.31,3,8,NA,0.186440678,2.71,3,3.01,29,12,2,wronganswer,505,target,visual,v_de,Ja,Zwoele,Levering,0.973728,2.733,2.865,0.147727273,NA,0.25,1.48,2,6,NA,0.045454546,2.19,8,1.835,1,0
17,Selfpaced,N,F,Y,6,auditory2visual,11,198,rightanswer,438,context,auditory,a_de,Ja,Donderende,Vergadering,NA,3.381,3.27,0.373122834,NA,0.358490566,0.85,4,10,NA,0.387755102,2.93,11,1.89,0,12,90,wronganswer,564,target,visual,v_de,Nee,Lenige,Belasting,0.991066,3.5,2.735,0.347826087,NA,0.5,0.85,3,6,NA,0.195652174,2.56,9,1.705,0,0
18,Selfpaced,N,F,Y,6,auditory2visual,11,187,rightanswer,589,context,auditory,a_het,Nee,Knarsend,Gerucht,NA,4.536,2,0.267857143,NA,0.25,0.7,1,9,NA,0.285714286,2.61,7,1.655,4,12,73,rightanswer,574,target,visual,v_de,Nee,Pijnlijke,Levering,0.980362,2.611,3.035,0.046536797,NA,0.047619048,2.4,1,9,NA,0.045454546,2.19,8,2.295,1,3.761200116
19,Selfpaced,N,F,Y,6,auditory2visual,11,213,rightanswer,2536,context,auditory,a_het,Ja,Hoorbaar,Plan,0.964573,3.444,2.9,0.513621795,NA,0.770833333,1.15,0,8,NA,0.256410256,3.47,4,2.31,7,12,105,rightanswer,2716,target,visual,v_de,Nee,Lage,Magie,0.96932,3.386,2.335,0.558045977,NA,0.633333333,2.61,0,4,NA,0.482758621,2.75,5,2.68,1,8.539737156
20,Selfpaced,N,F,Y,6,auditory2visual,11,206,rightanswer,527,context,auditory,a_het,Nee,Kreunend,Gelach,NA,4.882,4,0.416666667,NA,0.5,0.78,1,8,NA,0.333333333,1.95,6,1.365,0,12,91,rightanswer,446,target,visual,v_de,Nee,Vage,Plug,0.958488,3.05,3.1,0.348148148,NA,0.296296296,2.18,14,4,NA,0.4,1.56,4,1.87,3,0
21,Selfpaced,N,F,Y,6,auditory2visual,11,198,rightanswer,764,context,auditory,a_de,Ja,Donderende,Vergadering,NA,3.381,3.27,0.373122834,NA,0.358490566,0.85,4,10,NA,0.387755102,2.93,11,1.89,0,12,97,rightanswer,966,target,visual,v_de,Ja,Heldere,Situatie,0.765895,4,3.2,0.411304348,NA,0.54,2.33,7,7,NA,0.282608696,3.33,8,2.83,1,0
22,Selfpaced,N,M,Y,6,auditory2visual,11,216,rightanswer,576,context,auditory,a_het,Nee,Lauw,Volume,0.871071,2.563,3.265,0.57184529,NA,0.662921348,1.54,10,4,NA,0.480769231,1.99,6,1.765,0,12,94,wronganswer,1078,target,visual,v_het,Ja,Modderig,Sterven,0.856102,3.6,3.47,0.372710623,NA,0.435897436,1.42,1,8,NA,0.30952381,3.53,7,2.475,5,0
23,Selfpaced,N,F,Y,6,visual2visual,11,174,wronganswer,930,context,visual,v_de,Ja,Ruige,Pupil,0.89657,3.813,3.265,0.391598916,NA,0.222222222,2.09,5,5,NA,0.56097561,1.66,5,1.875,0,12,64,rightanswer,1589,target,visual,v_de,Nee,Rechthoekige,Sierlijkheid,0.610794,3.884,4,0.417568543,NA,0.53968254,1,0,12,NA,0.295454545,0.6,12,0.8,0,5.147494477
24,Selfpaced,Y,M,Y,6,auditory2visual,11,206,rightanswer,759,context,auditory,a_het,Nee,Kreunend,Gelach,NA,4.882,4,0.416666667,NA,0.5,0.78,1,8,NA,0.333333333,1.95,6,1.365,0,12,108,wronganswer,624,target,visual,v_de,Ja,Blonde,Pupil,0.910093,4.05,4.1,0.620110447,NA,0.679245283,2.55,4,6,NA,0.56097561,1.66,5,2.105,0,6.272877007
26,Quick,N,F,Y,6,auditory2visual,11,182,rightanswer,446,context,auditory,a_de,Ja,Jammerende,Pozie,NA,2.722,2.93,0.182138481,NA,0.254901961,1.2,1,10,NA,0.109375,2.42,6,1.81,0,12,104,wronganswer,451,target,visual,v_de,Nee,Rode,Huur,0.987542,3.661,3.565,0.531329924,NA,0.739130435,3.19,1,4,NA,0.323529412,2.95,4,3.07,9,4.718498871
27,Quick,Y,F,Y,6,auditory2visual,11,211,rightanswer,428,context,auditory,a_de,Nee,Melodieuze,Kennis,0.959205,3.811,2,0.494623656,NA,0.666666667,0.85,0,10,NA,0.322580645,3.22,6,2.035,1,12,108,wronganswer,367,target,visual,v_de,Ja,Blonde,Pupil,0.910093,4.05,4.1,0.620110447,NA,0.679245283,2.55,4,6,NA,0.56097561,1.66,5,2.105,0,0
28,Quick,N,F,Y,6,haptic2visual,11,138,wronganswer,650,context,haptic,h_het,Nee,Glad,Vilt,0.83905,4.375,4.305,0.362650603,NA,0.325301205,2.17,2,6,NA,0.4,1.4,4,1.785,11,12,2,wronganswer,923,target,visual,v_de,Ja,Zwoele,Levering,0.973728,2.733,2.865,0.147727273,NA,0.25,1.48,2,6,NA,0.045454546,2.19,8,1.835,1,8.496990484
29,Quick,N,F,Y,6,auditory2visual,11,182,rightanswer,1632,context,auditory,a_de,Ja,Jammerende,Pozie,NA,2.722,2.93,0.182138481,NA,0.254901961,1.2,1,10,NA,0.109375,2.42,6,1.81,0,12,84,wronganswer,1056,target,visual,v_de,Ja,Vieze,Uitvinding,0.873652,3.671,2.6,0.31219865,NA,0.558823529,2.89,10,5,NA,0.065573771,2.18,10,2.535,0,0
30,Quick,N,M,Y,6,haptic2visual,11,130,wronganswer,660,context,haptic,h_de,Ja,Geneeskrachtige,Rots,0.920404,2.557,4.73,0.263673891,NA,0.176470588,1,0,15,NA,0.350877193,2.62,4,1.81,8,12,22,wronganswer,1020,target,visual,v_de,Ja,Roestige,Hoeveelheid,0.9656,3.964,2.73,0.366666667,NA,0.433333333,1.65,1,8,NA,0.3,2.5,11,2.075,0,0
31,Quick,Y,F,Y,6,auditory2visual,11,216,rightanswer,622,context,auditory,a_het,Nee,Lauw,Volume,0.871071,2.563,3.265,0.57184529,NA,0.662921348,1.54,10,4,NA,0.480769231,1.99,6,1.765,0,12,94,wronganswer,714,target,visual,v_het,Ja,Modderig,Sterven,0.856102,3.6,3.47,0.372710623,NA,0.435897436,1.42,1,8,NA,0.30952381,3.53,7,2.475,5,0
32,Quick,N,F,N,6,visual2visual,11,157,wronganswer,516,context,visual,v_het,Ja,Vreemd,Aspect,0.886507,2.438,1.57,0.270186336,NA,0.15942029,3.51,2,6,NA,0.380952381,2.04,6,2.775,0,12,70,rightanswer,611,target,visual,v_het,Nee,Onbeweeglijk,Gebaar,0.872001,3.722,3.03,0.51532567,NA,0.444444444,1.23,0,12,NA,0.586206896,2.48,6,1.855,4,0
34,Selfpaced,Y,M,Y,6,visual2visual,11,177,rightanswer,1791,context,visual,v_de,Ja,Bolvormige,Formatie,0.83644,3.413,2.9,0.432432432,NA,0.486486486,0.48,0,10,NA,0.378378378,2.04,8,1.26,0,12,47,wronganswer,973,target,visual,v_de,Ja,Bloedige,Worp,0.838693,3.314,3.835,0.295066414,NA,0.35483871,1.85,2,8,NA,0.235294118,2.23,4,2.04,4,0
35,Selfpaced,N,M,Y,6,auditory2visual,11,191,rightanswer,1166,context,auditory,a_het,Nee,Schreeuwend,Compliment,0.977691,3.444,3.035,0.308147397,NA,0.224137931,2.02,2,11,NA,0.392156863,2.59,10,2.305,0,12,73,rightanswer,1666,target,visual,v_de,Nee,Pijnlijke,Levering,0.980362,2.611,3.035,0.046536797,NA,0.047619048,2.4,1,9,NA,0.045454546,2.19,8,2.295,1,0
36,Selfpaced,N,F,Y,6,visual2visual,11,170,rightanswer,439,context,visual,v_de,Nee,Flikkerende,Socialist,NA,3.025,1.93,0.365418119,NA,0.535714286,1.18,1,11,NA,0.195121951,1.46,9,1.32,0,12,38,rightanswer,500,target,visual,v_de,Nee,Elastische,Boerderij,1.00684,3.982,3.8,0.15275967,NA,0.254237288,1.04,1,10,NA,0.051282051,2.77,9,1.905,0,0
37,Selfpaced,N,F,Y,6,visual2visual,11,154,wronganswer,947,context,visual,v_het,Nee,Gewelfd,Moment,0.876797,2.702,2.4,0.250522648,NA,0.257142857,0.3,1,7,NA,0.243902439,3.7,6,2,0,12,38,rightanswer,959,target,visual,v_de,Nee,Elastische,Boerderij,1.00684,3.982,3.8,0.15275967,NA,0.254237288,1.04,1,10,NA,0.051282051,2.77,9,1.905,0,0
38,Selfpaced,Y,F,Y,6,visual2visual,11,163,rightanswer,765,context,visual,v_de,Nee,Getande,Boete,0.998269,2.946,3.1,0.29920635,NA,0.288888889,0.7,1,7,NA,0.30952381,2.47,5,1.585,8,12,61,rightanswer,1140,target,visual,v_de,Nee,Gevouwen,Situatie,NA,3.571,2.27,0.383951407,NA,0.485294118,1.51,1,8,NA,0.282608696,3.33,8,2.42,1,0
39,Selfpaced,N,M,Y,6,visual2visual,11,174,rightanswer,1507,context,visual,v_de,Ja,Ruige,Pupil,0.89657,3.813,3.265,0.391598916,NA,0.222222222,2.09,5,5,NA,0.56097561,1.66,5,1.875,0,12,50,rightanswer,1806,target,visual,v_de,Ja,Losse,Levering,0.933941,3.033,3.2,0.311188812,NA,0.576923077,2.47,20,5,NA,0.045454546,2.19,8,2.33,1,7.822444729
40,Quick,N,F,Y,6,visual2visual,11,153,rightanswer,610,context,visual,v_het,Ja,Bloemrijk,Bezit,1.06813,3.714,2.715,0.249180328,NA,0.4,0.7,0,9,NA,0.098360656,3.16,5,1.93,4,12,50,rightanswer,532,target,visual,v_de,Ja,Losse,Levering,0.933941,3.033,3.2,0.311188812,NA,0.576923077,2.47,20,5,NA,0.045454546,2.19,8,2.33,1,0
41,Quick,N,F,N,6,auditory2visual,11,209,wronganswer,743,context,auditory,a_het,Nee,Oorverdovend,Plan,0.973202,3.444,2.965,0.46474359,NA,0.673076923,1.34,0,12,NA,0.256410256,3.47,4,2.405,7,12,79,rightanswer,1301,target,visual,v_de,Nee,Vallende,Verhulling,NA,3.517,NA,0.26905703,NA,0.233766234,1.99,2,8,NA,0.304347826,0.78,10,1.385,1,0
42,Selfpaced,N,F,Y,6,auditory2visual,11,212,rightanswer,1454,context,auditory,a_het,Ja,Zoemend,Advies,NA,4.59,1.87,0.506112145,NA,0.603773585,0.85,0,7,NA,0.408450704,3.04,6,1.945,0,12,83,rightanswer,1128,target,visual,v_de,Ja,Metalen,Plug,0.86532,3.75,4.1,0.3,NA,0.2,2.38,1,7,NA,0.4,1.56,4,1.97,3,4.96284463
44,Quick,N,F,Y,6,visual2visual,11,149,rightanswer,502,context,visual,v_de,Nee,Vuile,Prins,0.938472,2.929,3.7,0.224053296,NA,0.274193548,3.25,10,5,NA,0.173913044,2.78,5,3.015,2,12,58,rightanswer,558,target,visual,v_de,Ja,Bleke,Ziekte,0.818318,3.6,3.63,0.354204477,NA,0.620689655,1.92,4,5,NA,0.087719298,2.98,6,2.45,3,8.083945702
45,Quick,N,F,Y,6,haptic2visual,11,132,rightanswer,936,context,haptic,h_de,Nee,Stekelige,Deken,0.795281,3.786,4.465,0.284749035,NA,0.285714286,0.9,0,9,NA,0.283783784,2.6,5,1.75,18,12,20,wronganswer,1977,target,visual,v_de,Ja,Verkoolde,Plug,0.91221,2.85,4.13,0.362790698,NA,0.325581395,1.32,1,9,NA,0.4,1.56,4,1.44,3,0
46,Selfpaced,N,F,Y,6,haptic2visual,11,120,wronganswer,937,context,haptic,h_het,Ja,Hard,Heft,0.890188,2.938,3.055,0.238095238,NA,0.142857143,3.6,12,4,NA,0.333333333,2.03,4,2.815,8,12,34,rightanswer,950,target,visual,v_de,Ja,Effen,Deel,0.93126,3.675,3.035,0.503496504,NA,0.461538462,1.26,4,5,NA,0.545454545,3.54,4,2.4,13,9.594513745
47,Selfpaced,N,F,Y,6,visual2visual,11,171,rightanswer,502,context,visual,v_het,Ja,Vlak,Dek,0.820377,3.738,3.7,0.373104146,NA,0.441860465,3.21,9,4,NA,0.304347826,2.8,3,3.005,22,12,45,wronganswer,506,target,visual,v_de,Ja,Kille,Aantekening,0.881481,2.443,3.37,0.258169935,NA,0.294117647,1.91,20,5,NA,0.222222222,1.76,11,1.835,0,0
48,Selfpaced,N,F,Y,6,visual2visual,11,159,wronganswer,996,context,visual,v_het,Ja,Groot,Onderscheid,0.910296,3.438,2.5,0.283068783,NA,0.380952381,3.7,6,5,NA,0.185185185,2.1,11,2.9,1,12,52,rightanswer,536,target,visual,v_de,Ja,Lelijke,Prins,0.785819,3.741,2.83,0.319715143,NA,0.465517241,2.84,2,7,NA,0.173913044,2.78,5,2.81,2,11.31354727
49,Quick,N,M,Y,6,haptic2visual,11,114,wronganswer,679,context,haptic,h_het,Nee,Pijnvol,Heft,NA,2.65,2.71,0.205128205,NA,0.076923077,0.48,0,7,NA,0.333333333,2.03,4,1.255,8,12,22,wronganswer,634,target,visual,v_de,Ja,Roestige,Hoeveelheid,0.9656,3.964,2.73,0.366666667,NA,0.433333333,1.65,1,8,NA,0.3,2.5,11,2.075,0,0
50,Quick,N,M,Y,6,auditory2visual,11,184,rightanswer,1246,context,auditory,a_het,Nee,Fluitend,Verleden,NA,2.778,1.33,0.223112536,NA,0.298076923,1.04,2,8,NA,0.148148148,3.3,8,2.17,7,12,106,rightanswer,784,target,visual,v_de,Nee,Fuchsia,Eigenaar,0.94063,3.902,3.735,0.577106519,NA,0.918918919,1,0,7,NA,0.235294118,3.02,8,2.01,1,0
1,Quick,N,F,Y,7,visual2visual,13,179,rightanswer,393,context,visual,v_het,Ja,Glitterend,Effect,NA,3.671,2.07,0.464892831,NA,0.515151515,0.48,0,10,2.07,0.414634146,2.77,6,1.625,0,14,50,rightanswer,1833,target,visual,v_de,Ja,Losse,Levering,0.933941,3.033,3.2,0.311188812,3.2,0.576923077,2.47,20,5,3.2,0.045454546,2.19,8,2.33,1,0
2,Quick,N,F,Y,7,haptic2visual,13,137,rightanswer,508,context,haptic,h_de,Ja,Glibberige,Rots,0.709194,4.107,4.13,0.356598017,NA,0.362318841,1.53,1,10,NA,0.350877193,2.62,4,2.075,8,14,31,rightanswer,774,target,visual,v_de,Nee,Gevlekte,Belasting,0.981789,3.528,3.1,0.438251619,NA,0.680851064,1.4,3,8,NA,0.195652174,2.56,9,1.98,0,0
3,Quick,N,F,Y,7,visual2visual,13,158,rightanswer,988,context,visual,v_het,Ja,Klonterig,Type,0.708814,2.794,2.63,0.271794872,NA,0.276923077,0.78,0,9,NA,0.266666667,3.08,4,1.93,5,14,66,rightanswer,918,target,visual,v_het,Nee,Kleurrijk,Fortuin,0.914891,3.214,2.9,0.447916667,NA,0.645833333,1.76,1,9,NA,0.25,2.69,7,2.225,0,0
4,Quick,N,F,Y,7,auditory2visual,13,200,rightanswer,1283,context,auditory,a_het,Ja,Stil,Voornemen,0.876852,3.686,2.465,0.37515763,NA,0.442622951,3.58,8,4,NA,0.307692308,1.61,9,2.595,3,14,107,wronganswer,1002,target,visual,v_de,Ja,Gespikkelde,Pels,0.756941,3.313,4.235,0.602564103,NA,0.846153846,0.78,0,11,NA,0.358974359,1.26,4,1.02,9,0
5,Quick,Y,F,Y,7,haptic2visual,13,130,wronganswer,1417,context,haptic,h_de,Ja,Geneeskrachtige,Rots,0.920404,2.557,4.73,0.263673891,NA,0.176470588,1,0,15,NA,0.350877193,2.62,4,1.81,8,14,28,wronganswer,1647,target,visual,v_de,Nee,Groeiende,Wacht,NA,3.527,3.2,0.415384616,NA,0.430769231,1.91,3,9,NA,0.4,3.87,5,2.89,10,7.215975003
6,,N,F,Y,7,haptic2visual,13,122,rightanswer,667,context,haptic,h_het,Ja,Broos,Bot,0.873392,3.482,3.87,0.243220339,NA,0.3,1.26,6,5,NA,0.186440678,2.71,3,1.985,29,14,14,wronganswer,671,target,visual,v_de,Nee,Diepe,Plug,0.914433,3.5,3.6,0.326666667,NA,0.253333333,2.69,10,5,NA,0.4,1.56,4,2.125,3,6.126869184
8,,N,F,Y,7,visual2visual,13,171,rightanswer,520,context,visual,v_het,Ja,Vlak,Dek,0.820377,3.738,3.7,0.373104146,NA,0.441860465,3.21,9,4,NA,0.304347826,2.8,3,3.005,22,14,63,rightanswer,1059,target,visual,v_het,Nee,Gevormd,Oosten,0.945895,2.762,3.27,0.394009217,NA,0.14516129,2.29,0,7,NA,0.642857143,2.71,6,2.5,5,9.703144581
9,,N,F,Y,7,auditory2visual,13,198,wronganswer,1563,context,auditory,a_de,Ja,Donderende,Vergadering,NA,3.381,3.27,0.373122834,NA,0.358490566,0.85,4,10,NA,0.387755102,2.93,11,1.89,0,14,90,rightanswer,1623,target,visual,v_de,Nee,Lenige,Belasting,0.991066,3.5,2.735,0.347826087,NA,0.5,0.85,3,6,NA,0.195652174,2.56,9,1.705,0,0
10,,N,F,Y,7,auditory2visual,13,214,rightanswer,193,context,auditory,a_het,Ja,Schel,Geluid,0.618908,3.619,3.27,0.520108696,NA,0.475,1,10,5,NA,0.565217391,3.14,6,2.07,4,14,106,rightanswer,391,target,visual,v_de,Nee,Fuchsia,Eigenaar,0.94063,3.902,3.735,0.577106519,NA,0.918918919,1,0,7,NA,0.235294118,3.02,8,2.01,1,0
11,Quick,N,F,Y,7,auditory2visual,13,199,rightanswer,980,context,auditory,a_de,Nee,Blaffende,Felicitatie,NA,4.295,2.67,0.374603175,NA,0.471428571,1.34,2,9,NA,0.277777778,1.2,11,1.27,1,14,74,rightanswer,785,target,visual,v_de,Ja,Levende,Kip,0.76092,3.486,3.9,0.079850746,NA,0.1,2.83,5,7,NA,0.059701492,2.96,3,2.895,18,0
12,Quick,N,M,Y,7,auditory2visual,13,188,rightanswer,1100,context,auditory,a_de,Nee,Giechelende,Overeenkomst,NA,4.042,1.93,0.270701755,NA,0.394736842,0.78,1,11,NA,0.146666667,2.73,12,1.755,1,14,98,rightanswer,881,target,visual,v_het,Nee,Behaard,Beheer,1.04916,2.825,3.2,0.420930233,NA,0.441860465,1.45,6,7,NA,0.4,1.95,6,1.7,5,0
13,Quick,N,F,Y,7,visual2visual,13,172,rightanswer,743,context,visual,v_de,Nee,Langgerekte,Verbeelding,0.862372,3.821,2.3,0.37340302,NA,0.380952381,0.48,2,11,NA,0.365853659,2.49,11,1.485,0,14,65,rightanswer,751,target,visual,v_het,Ja,Bruin,Type,0.708907,2.794,2.765,0.442857143,NA,0.619047619,2.68,3,5,NA,0.266666667,3.08,4,2.88,5,5.472270674
14,Selfpaced,N,F,Y,7,visual2visual,13,146,rightanswer,872,context,visual,v_de,Nee,Weerkaatsende,Levering,NA,2.933,3.2,0.184491979,NA,0.323529412,0.3,0,13,NA,0.045454546,2.19,8,1.245,1,14,52,rightanswer,1428,target,visual,v_de,Ja,Lelijke,Prins,0.785819,3.741,2.83,0.319715143,NA,0.465517241,2.84,2,7,NA,0.173913044,2.78,5,2.81,2,0
15,Selfpaced,N,F,Y,7,visual2visual,13,156,rightanswer,962,context,visual,v_de,Ja,Onmetelijke,Levering,1.02835,2.958,2.335,0.260822511,NA,0.476190476,1.26,0,11,NA,0.045454546,2.19,8,1.725,1,14,65,rightanswer,1118,target,visual,v_het,Ja,Bruin,Type,0.708907,2.794,2.765,0.442857143,NA,0.619047619,2.68,3,5,NA,0.266666667,3.08,4,2.88,5,0
16,Selfpaced,N,F,Y,7,haptic2visual,13,113,rightanswer,1492,context,haptic,h_het,Nee,Kietelend,Pistool,NA,4.089,4.87,0.2,NA,0.307692308,0.6,1,9,NA,0.092307692,3.23,7,1.915,0,14,26,rightanswer,960,target,visual,v_het,Ja,Spits,Type,0.928955,3.321,2.7,0.375980393,NA,0.485294118,1.89,3,5,NA,0.266666667,3.08,4,2.485,5,0
17,Selfpaced,N,F,Y,7,haptic2visual,13,127,rightanswer,474,context,haptic,h_de,Ja,Zachte,Spier,0.832062,3.982,4.2,0.262488849,NA,0.236842105,2.59,14,6,NA,0.288135593,2.04,5,2.315,4,14,5,wronganswer,476,target,visual,v_de,Ja,Stevige,Veiligheid,0.928228,3.188,2.5,0.274475525,NA,0.230769231,2.38,1,7,NA,0.318181818,3.13,10,2.755,3,10.0556076
18,Selfpaced,N,F,Y,7,auditory2visual,13,196,rightanswer,612,context,auditory,a_het,Nee,Schor,Enthousiasme,0.859341,4.578,2.83,0.337784091,NA,0.59375,1.11,7,5,NA,0.081818182,2.25,12,1.68,1,14,103,wronganswer,235,target,visual,v_het,Ja,Luchtig,Oosten,1.00194,2.762,2.87,0.510317461,NA,0.377777778,1.73,1,7,NA,0.642857143,2.71,6,2.22,5,0
19,Selfpaced,N,F,Y,7,visual2visual,13,154,wronganswer,1635,context,visual,v_het,Nee,Gewelfd,Moment,0.876797,2.702,2.4,0.250522648,NA,0.257142857,0.3,1,7,NA,0.243902439,3.7,6,2,0,14,53,wronganswer,1525,target,visual,v_de,Nee,Enorme,Plug,0.970384,3.25,2.965,0.338888889,NA,0.277777778,3.16,2,6,NA,0.4,1.56,4,2.36,3,0
20,Selfpaced,N,F,Y,7,visual2visual,13,151,wronganswer,637,context,visual,v_het,Ja,Rommelend,Moment,NA,2.723,1.33,0.231042129,NA,0.218181818,0.6,12,9,NA,0.243902439,3.7,6,2.15,0,14,51,wronganswer,435,target,visual,v_de,Nee,Aardse,Magie,0.839526,2.286,1.97,0.312807882,NA,0.142857143,2.18,6,6,NA,0.482758621,2.75,5,2.465,1,0
21,Selfpaced,N,F,Y,7,haptic2visual,13,110,rightanswer,1241,context,haptic,h_het,Nee,Drassig,Welzijn,1.02971,3.444,2.73,0.157072369,NA,0.15625,0.78,0,7,NA,0.157894737,2.33,7,1.555,0,14,21,rightanswer,612,target,visual,v_het,Nee,Amber,Sterven,0.779902,2.857,3.725,0.364439325,NA,0.419354839,1.97,1,5,NA,0.30952381,3.53,7,2.75,5,0
22,Selfpaced,N,M,Y,7,auditory2visual,13,188,rightanswer,890,context,auditory,a_de,Nee,Giechelende,Overeenkomst,NA,4.042,1.93,0.270701755,NA,0.394736842,0.78,1,11,NA,0.146666667,2.73,12,1.755,1,14,76,wronganswer,722,target,visual,v_de,Ja,Krullende,Vrijheid,NA,3.365,1.47,0.213981115,NA,0.223880597,0.85,1,9,NA,0.204081633,3.11,8,1.98,0,0
23,Selfpaced,N,F,Y,7,visual2visual,13,154,rightanswer,1016,context,visual,v_het,Nee,Gewelfd,Moment,0.876797,2.702,2.4,0.250522648,NA,0.257142857,0.3,1,7,NA,0.243902439,3.7,6,2,0,14,38,rightanswer,909,target,visual,v_de,Nee,Elastische,Boerderij,1.00684,3.982,3.8,0.15275967,NA,0.254237288,1.04,1,10,NA,0.051282051,2.77,9,1.905,0,0
24,Selfpaced,Y,M,Y,7,visual2visual,13,171,rightanswer,1260,context,visual,v_het,Ja,Vlak,Dek,0.820377,3.738,3.7,0.373104146,NA,0.441860465,3.21,9,4,NA,0.304347826,2.8,3,3.005,22,14,48,wronganswer,723,target,visual,v_de,Ja,Rotsige,Beurs,0.981565,2.6,3.07,0.3046875,NA,0.359375,0.78,1,7,NA,0.25,2.61,5,1.695,1,7.942362238
26,Quick,N,F,Y,7,haptic2visual,13,125,wronganswer,576,context,haptic,h_het,Nee,Pulserend,Heft,NA,2.393,2.71,0.256410256,NA,0.179487179,0.48,0,9,NA,0.333333333,2.03,4,1.255,8,14,21,wronganswer,509,target,visual,v_het,Nee,Amber,Sterven,0.779902,2.857,3.725,0.364439325,NA,0.419354839,1.97,1,5,NA,0.30952381,3.53,7,2.75,5,4.718498871
27,Quick,Y,F,Y,7,auditory2visual,13,214,rightanswer,375,context,auditory,a_het,Ja,Schel,Geluid,0.618908,3.619,3.27,0.520108696,NA,0.475,1,10,5,NA,0.565217391,3.14,6,2.07,4,14,81,rightanswer,421,target,visual,v_het,Nee,Stoffig,Loon,0.881351,3.119,3.47,0.277958153,NA,0.396825397,1.76,1,7,NA,0.159090909,2.8,4,2.28,13,0
28,Quick,N,F,Y,7,haptic2visual,13,121,wronganswer,900,context,haptic,h_het,Ja,Mals,Contact,1.20917,3.982,3.1,0.242094862,NA,0.347826087,1.64,13,4,NA,0.136363636,3.37,7,2.505,2,14,4,rightanswer,846,target,visual,v_de,Ja,Beschimmelde,Levering,0.87933,3.333,3.335,0.272727273,NA,0.5,1.2,0,12,NA,0.045454546,2.19,8,1.695,1,0
29,Quick,N,F,Y,7,haptic2visual,13,135,rightanswer,1368,context,haptic,h_de,Nee,Zere,Rots,0.845866,4.107,3.165,0.354010025,NA,0.357142857,1.86,19,4,NA,0.350877193,2.62,4,2.24,8,14,7,rightanswer,1129,target,visual,v_het,Ja,Schriel,Loon,0.913305,3.369,2.7,0.277219873,NA,0.395348837,1.04,0,7,NA,0.159090909,2.8,4,1.92,13,0
30,Quick,N,M,Y,7,visual2visual,13,164,rightanswer,882,context,visual,v_het,Nee,Nevelig,Mandaat,0.885476,2.183,2.7,0.30020284,NA,0.482758621,0.3,0,7,NA,0.117647059,1.49,7,0.895,0,14,71,rightanswer,1128,target,visual,v_de,Ja,Hoge,Plug,1.03526,4.05,3.63,0.54375,NA,0.6875,3.19,21,4,NA,0.4,1.56,4,2.375,3,5.214935758
