Ptp,Group,Gender,Lefthanded,A_V_OK,Event,Trial,Item,Condition,Accuracy,RT,Position,cat,catspec,solution,property,concept,LSA_distance,mean_perceptualstrength,mean_concreteness,mean_exc,prop_concreteness,prop_exc,prop_lg10CD,prop_orthneigh,prop_letters,conc_concreteness,conc_exc,conc_lg10CD,conc_letters,mean_lg10CD,conc_orthneigh
1,Quick,F,N,Y,48,96,1,haptic2visual,rightanswer,544,target,visual,v_het,Nee,Kokend,Mandaat,0.901574,2.306,1.93,0.131191951,,0.144736842,1.77,4,6,1.93,0.117647059,1.49,7,1.63,0
1,Quick,F,N,Y,18,36,2,haptic2visual,wronganswer,356,target,visual,v_de,Ja,Zwoele,Levering,0.973728,2.733,2.865,0.147727273,2.53,0.25,1.48,2,6,3.2,0.045454546,2.19,8,1.835,1
1,Quick,F,N,Y,5,10,3,haptic2visual,wronganswer,516,target,visual,v_de,Nee,Barstende,Veiligheid,,2.889,1.93,0.212937063,,0.107692308,1.57,2,9,1.93,0.318181818,3.13,10,2.35,3
1,Quick,F,N,Y,105,210,4,haptic2visual,wronganswer,317,target,visual,v_de,Ja,Beschimmelde,Levering,0.87933,3.333,3.335,0.272727273,3.47,0.5,1.2,0,12,3.2,0.045454546,2.19,8,1.695,1
1,Quick,F,N,Y,100,200,5,haptic2visual,rightanswer,1219,target,visual,v_de,Ja,Stevige,Veiligheid,0.928228,3.188,2.5,0.274475525,3.07,0.230769231,2.38,1,7,1.93,0.318181818,3.13,10,2.755,3
1,Quick,F,N,Y,20,40,6,haptic2visual,rightanswer,943,target,visual,v_de,Nee,Grove,Sierlijkheid,0.931037,3.446,2.07,0.274487836,2.07,0.253521127,2.16,6,5,,0.295454545,0.6,12,1.38,0
1,Quick,F,N,Y,43,86,7,haptic2visual,wronganswer,870,target,visual,v_het,Ja,Schriel,Loon,0.913305,3.369,2.7,0.277219873,2.33,0.395348837,1.04,0,7,3.07,0.159090909,2.8,4,1.92,13
1,Quick,F,N,Y,16,32,8,haptic2visual,wronganswer,620,target,visual,v_de,Ja,Plantaardige,Aantekening,0.819882,3.143,3.165,0.288194445,2.8,0.354166667,1.26,0,12,3.53,0.222222222,1.76,11,1.51,0
1,Quick,F,N,Y,51,102,9,haptic2visual,wronganswer,563,target,visual,v_de,Ja,Saaie,President,0.934654,2.516,2.53,0.292832168,2.13,0.153846154,2.57,7,5,2.93,0.431818182,3.07,9,2.82,0
1,Quick,F,N,Y,29,58,10,haptic2visual,rightanswer,576,target,visual,v_de,Nee,Knappe,Ziekte,0.889361,3.4,2.83,0.302480339,2.33,0.517241379,3.01,11,6,3.33,0.087719298,2.98,6,2.995,3
1,Quick,F,N,Y,63,126,11,haptic2visual,wronganswer,951,target,visual,v_de,Ja,Droge,Weerstand,1.0069,3.671,3.065,0.309200604,3.8,0.461538462,2.5,4,5,2.33,0.156862745,2.36,9,2.43,0
1,Quick,F,N,Y,22,44,12,haptic2visual,wronganswer,556,target,visual,v_de,Ja,Gesmolten,Weerstand,0.945311,3.671,2.33,0.31372549,,0.470588235,2.18,0,9,2.33,0.156862745,2.36,9,2.27,0
1,Quick,F,N,Y,26,52,13,haptic2visual,wronganswer,1304,target,visual,v_de,Ja,Absorberende,Verbeelding,,2.683,1.6,0.317073171,,0.268292683,0.9,1,12,1.6,0.365853659,2.49,11,1.695,0
1,Quick,F,N,Y,15,30,14,haptic2visual,rightanswer,580,target,visual,v_de,Nee,Diepe,Plug,0.914433,3.5,3.6,0.326666667,3.07,0.253333333,2.69,10,5,4.13,0.4,1.56,4,2.125,3
1,Quick,F,N,Y,6,12,15,haptic2visual,rightanswer,572,target,visual,v_de,Nee,Betoverende,Plug,0.938647,2.85,3.2,0.330434783,2.27,0.260869565,1.72,2,11,4.13,0.4,1.56,4,1.64,3
1,Quick,F,N,Y,23,46,16,haptic2visual,rightanswer,2117,target,visual,v_de,Ja,Lege,Aantekening,0.816074,3.31,3.5,0.331111111,3.47,0.44,2.91,13,4,3.53,0.222222222,1.76,11,2.335,0
1,Quick,F,N,Y,93,186,17,haptic2visual,wronganswer,598,target,visual,v_de,Ja,Ondiepe,Kwestie,0.879064,2.938,2.365,0.332810867,3.2,0.424242424,1.54,1,7,1.53,0.24137931,3.03,7,2.285,1
1,Quick,F,N,Y,52,104,18,haptic2visual,rightanswer,1020,target,visual,v_het,Ja,Somber,Type,0.926306,2.516,2.03,0.333333334,2.33,0.4,2.43,2,6,1.73,0.266666667,3.08,4,2.755,5
1,Quick,F,N,Y,58,116,19,haptic2visual,wronganswer,444,target,visual,v_de,Ja,Jankende,Proportie,,3.013,1.8,0.346082779,,0.207317073,1.36,2,8,1.8,0.484848485,1.32,9,1.34,1
1,Quick,F,N,Y,102,204,20,haptic2visual,wronganswer,1016,target,visual,v_de,Ja,Verkoolde,Plug,0.91221,2.85,4.13,0.362790698,,0.325581395,1.32,1,9,4.13,0.4,1.56,4,1.44,3
1,Quick,F,N,Y,55,110,21,haptic2visual,rightanswer,504,target,visual,v_het,Nee,Amber,Sterven,0.779902,2.857,3.725,0.364439325,4.18,0.419354839,1.97,1,5,3.27,0.30952381,3.53,7,2.75,5
1,Quick,F,N,Y,27,54,22,haptic2visual,wronganswer,643,target,visual,v_de,Ja,Roestige,Hoeveelheid,0.9656,3.964,2.73,0.366666667,3.53,0.433333333,1.65,1,8,1.93,0.3,2.5,11,2.075,0
1,Quick,F,N,Y,78,156,23,haptic2visual,rightanswer,341,target,visual,v_de,Nee,Blauwe,Boerderij,0.983035,3.579,4.365,0.36710444,4.53,0.682926829,3.14,4,6,4.2,0.051282051,2.77,9,2.955,0
1,Quick,F,N,Y,49,98,24,haptic2visual,rightanswer,1223,target,visual,v_het,Nee,Onrijp,Dek,1.0097,3.063,3.73,0.367860188,3.13,0.431372549,0.85,0,6,4.33,0.304347826,2.8,3,1.825,22
1,Quick,F,N,Y,69,138,25,haptic2visual,wronganswer,530,target,visual,v_de,Ja,Schone,President,0.920504,3.471,2.73,0.370230079,2.53,0.308641975,2.82,4,6,2.93,0.431818182,3.07,9,2.945,0
1,Quick,F,N,Y,42,84,26,haptic2visual,wronganswer,664,target,visual,v_het,Ja,Spits,Type,0.928955,3.321,2.7,0.375980393,3.67,0.485294118,1.89,3,5,1.73,0.266666667,3.08,4,2.485,5
1,Quick,F,N,Y,25,50,27,haptic2visual,wronganswer,822,target,visual,v_de,Nee,Gebogen,Gelegenheid,0.96045,3.151,2.835,0.383802817,3.6,0.267605634,2.04,8,7,2.07,0.5,2.75,11,2.395,1
1,Quick,F,N,Y,36,72,28,haptic2visual,rightanswer,350,target,visual,v_de,Nee,Groeiende,Wacht,,3.527,3.2,0.415384616,,0.430769231,1.91,3,9,3.2,0.4,3.87,5,2.89,10
1,Quick,F,N,Y,30,60,29,haptic2visual,wronganswer,478,target,visual,v_het,Ja,Tenger,Effect,0.917275,3.671,2.535,0.417843389,3,0.421052632,1.3,1,6,2.07,0.414634146,2.77,6,2.035,0
1,Quick,F,N,Y,1,2,30,haptic2visual,rightanswer,459,target,visual,v_de,Nee,Beige,Hoeveelheid,0.950069,3.548,3.265,0.420833334,4.6,0.541666667,1.76,1,5,1.93,0.3,2.5,11,2.13,0
1,Quick,F,N,Y,24,48,31,haptic2visual,rightanswer,2128,target,visual,v_de,Nee,Gevlekte,Belasting,0.981789,3.528,3.1,0.438251619,4,0.680851064,1.4,3,8,2.2,0.195652174,2.56,9,1.98,0
1,Quick,F,N,Y,32,64,32,haptic2visual,wronganswer,586,target,visual,v_het,Ja,Briljant,Oosten,1.06043,2.373,2.6,0.446428572,1.93,0.25,2.85,1,8,3.27,0.642857143,2.71,6,2.78,5
1,Quick,F,N,Y,41,82,33,haptic2visual,wronganswer,768,target,visual,v_het,Ja,Elegant,Effect,0.949052,3.238,2.2,0.457317073,2.33,0.5,2.31,1,7,2.07,0.414634146,2.77,6,2.54,0
1,Quick,F,N,Y,74,148,34,haptic2visual,rightanswer,565,target,visual,v_de,Ja,Effen,Deel,0.93126,3.675,3.035,0.503496504,3.4,0.461538462,1.26,4,5,2.67,0.545454545,3.54,4,2.4,13
1,Quick,F,N,Y,60,120,35,haptic2visual,rightanswer,473,target,visual,v_het,Nee,Geblokt,Oosten,1.02688,3.151,3.27,0.528975742,,0.41509434,1.11,1,7,3.27,0.642857143,2.71,6,1.91,5
1,Quick,F,N,Y,81,162,36,haptic2visual,wronganswer,518,target,visual,v_de,Ja,Gouden,Gelegenheid,0.897149,3.529,2.87,0.53125,3.67,0.5625,2.95,7,6,2.07,0.5,2.75,11,2.85,1
1,Quick,F,N,Y,37,74,37,visual2visual,wronganswer,1032,target,visual,v_het,Ja,Brak,Bezit,0.901718,3.314,2.71,0.149180328,3.42,0.2,2.9,7,4,2,0.098360656,3.16,5,3.03,4
1,Quick,F,N,Y,2,4,38,visual2visual,rightanswer,428,target,visual,v_de,Nee,Elastische,Boerderij,1.00684,3.982,3.8,0.15275967,3.4,0.254237288,1.04,1,10,4.2,0.051282051,2.77,9,1.905,0
1,Quick,F,N,Y,13,26,39,visual2visual,wronganswer,1082,target,visual,v_het,Ja,Hol,Bezit,0.907924,3.414,3.2,0.167601381,4.4,0.236842105,2.56,9,3,2,0.098360656,3.16,5,2.86,4
1,Quick,F,N,Y,98,196,40,visual2visual,rightanswer,313,target,visual,v_de,Ja,Smerige,Boerderij,0.787197,3.691,3.765,0.18005279,3.33,0.308823529,2.94,3,7,4.2,0.051282051,2.77,9,2.855,0
1,Quick,F,N,Y,31,62,41,visual2visual,rightanswer,578,target,visual,v_de,Nee,Ijzige,Beurs,1.0372,2.5,3.07,0.210714286,3.07,0.171428571,1.57,2,6,3.07,0.25,2.61,5,2.09,1
1,Quick,F,N,Y,89,178,42,visual2visual,wronganswer,543,target,visual,v_het,Ja,Smakeloos,Moment,0.925003,1.986,1.9,0.22195122,2.47,0.2,1.75,0,9,1.33,0.243902439,3.7,6,2.725,0
1,Quick,F,N,Y,84,168,43,visual2visual,rightanswer,616,target,visual,v_het,Nee,Koortsig,Fortuin,1.05603,2.414,2.635,0.25,2.67,0.25,1.42,0,8,2.6,0.25,2.69,7,2.055,0
1,Quick,F,N,Y,54,108,44,visual2visual,rightanswer,673,target,visual,v_de,Ja,Zwakke,Worp,0.819115,3.402,3.17,0.255578094,2.27,0.275862069,2.74,4,6,4.07,0.235294118,2.23,4,2.485,4
1,Quick,F,N,Y,19,38,45,visual2visual,wronganswer,381,target,visual,v_de,Ja,Kille,Aantekening,0.881481,2.443,3.37,0.258169935,3.21,0.294117647,1.91,20,5,3.53,0.222222222,1.76,11,1.835,0
1,Quick,F,N,Y,97,194,46,visual2visual,wronganswer,546,target,visual,v_het,Nee,Solide,Ideaal,0.891126,3.214,1.85,0.269354839,2.17,0.338709677,2,0,6,1.53,0.2,2.44,6,2.22,0
1,Quick,F,N,Y,33,66,47,visual2visual,wronganswer,474,target,visual,v_de,Ja,Bloedige,Worp,0.838693,3.314,3.835,0.295066414,3.6,0.35483871,1.85,2,8,4.07,0.235294118,2.23,4,2.04,4
1,Quick,F,N,Y,67,134,48,visual2visual,wronganswer,462,target,visual,v_de,Ja,Rotsige,Beurs,0.981565,2.6,3.07,0.3046875,,0.359375,0.78,1,7,3.07,0.25,2.61,5,1.695,1
1,Quick,F,N,Y,68,136,49,visual2visual,rightanswer,454,target,visual,v_het,Nee,Mistig,Loon,0.934111,3.286,3.47,0.308116883,3.87,0.457142857,1.7,2,6,3.07,0.159090909,2.8,4,2.25,13
1,Quick,F,N,Y,7,14,50,visual2visual,rightanswer,1833,target,visual,v_de,Ja,Losse,Levering,0.933941,3.033,3.2,0.311188812,3.2,0.576923077,2.47,20,5,3.2,0.045454546,2.19,8,2.33,1
1,Quick,F,N,Y,77,154,51,visual2visual,rightanswer,1083,target,visual,v_de,Nee,Aardse,Magie,0.839526,2.286,1.97,0.312807882,2.07,0.142857143,2.18,6,6,1.87,0.482758621,2.75,5,2.465,1
1,Quick,F,N,Y,45,90,52,visual2visual,wronganswer,606,target,visual,v_de,Ja,Lelijke,Prins,0.785819,3.741,2.83,0.319715143,2.13,0.465517241,2.84,2,7,3.53,0.173913044,2.78,5,2.81,2
1,Quick,F,N,Y,76,152,53,visual2visual,rightanswer,906,target,visual,v_de,Nee,Enorme,Plug,0.970384,3.25,2.965,0.338888889,1.8,0.277777778,3.16,2,6,4.13,0.4,1.56,4,2.36,3
1,Quick,F,N,Y,61,122,54,visual2visual,rightanswer,1055,target,visual,v_de,Nee,Fonkelende,Verhulling,,3.367,3.87,0.339673913,3.87,0.375,1.3,1,10,,0.304347826,0.78,10,1.04,1
1,Quick,F,N,Y,38,76,55,visual2visual,rightanswer,525,target,visual,v_de,Nee,Sterke,Wacht,0.683177,3.027,2.965,0.350793651,2.73,0.301587302,3.08,7,6,3.2,0.4,3.87,5,3.475,10
1,Quick,F,N,Y,88,176,56,visual2visual,wronganswer,504,target,visual,v_het,Ja,Transparant,Bezit,1.05536,3.777,2.735,0.353528154,3.47,0.608695652,1.38,0,11,2,0.098360656,3.16,5,2.27,4
1,Quick,F,N,Y,46,92,57,visual2visual,rightanswer,1526,target,visual,v_de,Nee,Compacte,Reus,1.01699,2.984,3.435,0.354166667,2.6,0.375,1.43,1,8,4.27,0.333333333,2.29,4,1.86,7
1,Quick,F,N,Y,91,182,58,visual2visual,wronganswer,527,target,visual,v_de,Ja,Bleke,Ziekte,0.818318,3.6,3.63,0.354204477,3.93,0.620689655,1.92,4,5,3.33,0.087719298,2.98,6,2.45,3
1,Quick,F,N,Y,9,18,59,visual2visual,wronganswer,1104,target,visual,v_de,Nee,Stompe,Wacht,0.850451,3.214,3.445,0.366666667,3.69,0.333333333,0.85,5,6,3.2,0.4,3.87,5,2.36,10
1,Quick,F,N,Y,3,6,60,visual2visual,wronganswer,721,target,visual,v_het,Ja,Nauw,Effect,1.04643,3.371,2.4,0.37398374,2.73,0.333333333,2.36,8,4,2.07,0.414634146,2.77,6,2.565,0
1,Quick,F,N,Y,106,212,61,visual2visual,rightanswer,507,target,visual,v_de,Nee,Gevouwen,Situatie,,3.571,2.27,0.383951407,,0.485294118,1.51,1,8,2.27,0.282608696,3.33,8,2.42,1
1,Quick,F,N,Y,65,130,62,visual2visual,rightanswer,432,target,visual,v_de,Nee,Pluizige,Boete,0.902354,3.571,3.435,0.385531136,4,0.461538462,1.46,0,8,2.87,0.30952381,2.47,5,1.965,8
1,Quick,F,N,Y,107,214,63,visual2visual,rightanswer,557,target,visual,v_het,Nee,Gevormd,Oosten,0.945895,2.762,3.27,0.394009217,,0.14516129,2.29,0,7,3.27,0.642857143,2.71,6,2.5,5
1,Quick,F,N,Y,101,202,64,visual2visual,rightanswer,830,target,visual,v_de,Nee,Rechthoekige,Sierlijkheid,0.610794,3.884,4,0.417568543,4,0.53968254,1,0,12,,0.295454545,0.6,12,0.8,0
1,Quick,F,N,Y,4,8,65,visual2visual,wronganswer,711,target,visual,v_het,Ja,Bruin,Type,0.708907,2.794,2.765,0.442857143,3.8,0.619047619,2.68,3,5,1.73,0.266666667,3.08,4,2.88,5
1,Quick,F,N,Y,86,172,66,visual2visual,rightanswer,534,target,visual,v_het,Nee,Kleurrijk,Fortuin,0.914891,3.214,2.9,0.447916667,3.2,0.645833333,1.76,1,9,2.6,0.25,2.69,7,2.225,0
1,Quick,F,N,Y,104,208,67,visual2visual,rightanswer,526,target,visual,v_de,Nee,Bronzen,Boete,0.985813,2.96,3.3,0.480107527,3.73,0.766666667,1.61,2,7,2.87,0.193548387,2.47,5,2.04,8
1,Quick,F,N,Y,83,166,68,visual2visual,wronganswer,815,target,visual,v_de,Nee,Paarse,Vrijheid,1.01049,3.955,2.8,0.497389654,4.13,0.790697674,2.15,10,6,1.47,0.204081633,3.11,8,2.63,0
1,Quick,F,N,Y,94,188,69,visual2visual,wronganswer,666,target,visual,v_de,Ja,Lichtbruine,Verhulling,,3.967,3.6,0.502173913,3.6,0.7,0.9,0,11,,0.304347826,0.78,10,0.84,1
1,Quick,F,N,Y,70,140,70,visual2visual,wronganswer,1787,target,visual,v_het,Nee,Onbeweeglijk,Gebaar,0.872001,3.722,3.03,0.51532567,2.93,0.444444444,1.23,0,12,3.13,0.586206896,2.48,6,1.855,4
1,Quick,F,N,Y,11,22,71,visual2visual,wronganswer,842,target,visual,v_de,Ja,Hoge,Plug,1.03526,4.05,3.63,0.54375,3.13,0.6875,3.19,21,4,4.13,0.4,1.56,4,2.375,3
1,Quick,F,N,Y,53,106,72,visual2visual,rightanswer,688,target,visual,v_het,Ja,Grotesk,Effect,0.94522,3.571,2.075,0.635888502,2.08,0.857142857,1.34,1,7,2.07,0.414634146,2.77,6,2.055,0
1,Quick,F,N,Y,96,192,73,auditory2visual,rightanswer,617,target,visual,v_de,Nee,Pijnlijke,Levering,0.980362,2.611,3.035,0.046536797,2.87,0.047619048,2.4,1,9,3.2,0.045454546,2.19,8,2.295,1
1,Quick,F,N,Y,62,124,74,auditory2visual,rightanswer,786,target,visual,v_de,Ja,Levende,Kip,0.76092,3.486,3.9,0.079850746,2.93,0.1,2.83,5,7,4.87,0.059701492,2.96,3,2.895,18
1,Quick,F,N,Y,56,112,75,auditory2visual,rightanswer,778,target,visual,v_de,Nee,Ongelijke,Uitvinding,0.878655,3.571,1.865,0.157786886,1.53,0.25,1.23,0,9,2.2,0.065573771,2.18,10,1.705,0
1,Quick,F,N,Y,85,170,76,auditory2visual,wronganswer,505,target,visual,v_de,Ja,Krullende,Vrijheid,,3.365,1.47,0.213981115,,0.223880597,0.85,1,9,1.47,0.204081633,3.11,8,1.98,0
1,Quick,F,N,Y,57,114,77,auditory2visual,rightanswer,415,target,visual,v_het,Nee,Hobbelig,Loon,1.03941,2.986,3.335,0.237440192,3.6,0.315789474,1.58,0,8,3.07,0.159090909,2.8,4,2.19,13
1,Quick,F,N,Y,28,56,78,auditory2visual,wronganswer,480,target,visual,v_de,Ja,Doffe,Eigenaar,0.958726,3.048,3.065,0.256535948,3.2,0.277777778,1.34,2,5,2.93,0.235294118,3.02,8,2.18,1
1,Quick,F,N,Y,21,42,79,auditory2visual,rightanswer,1285,target,visual,v_de,Nee,Vallende,Verhulling,,3.517,,0.26905703,,0.233766234,1.99,2,8,,0.304347826,0.78,10,1.385,1
1,Quick,F,N,Y,99,198,80,auditory2visual,rightanswer,546,target,visual,v_de,Nee,Pure,Plug,0.995621,2.875,3.23,0.271428572,2.33,0.142857143,2.74,8,4,4.13,0.4,1.56,4,2.15,3
1,Quick,F,N,Y,71,142,81,auditory2visual,rightanswer,459,target,visual,v_het,Nee,Stoffig,Loon,0.881351,3.119,3.47,0.277958153,3.87,0.396825397,1.76,1,7,3.07,0.159090909,2.8,4,2.28,13
1,Quick,F,N,Y,108,216,82,auditory2visual,rightanswer,456,target,visual,v_de,Nee,Golvende,Plug,0.923349,3.875,4.13,0.284415585,4.13,0.168831169,1.3,2,8,4.13,0.4,1.56,4,1.43,3
1,Quick,F,N,Y,95,190,83,auditory2visual,rightanswer,609,target,visual,v_de,Ja,Metalen,Plug,0.86532,3.75,4.1,0.3,4.07,0.2,2.38,1,7,4.13,0.4,1.56,4,1.97,3
1,Quick,F,N,Y,92,184,84,auditory2visual,wronganswer,1004,target,visual,v_de,Ja,Vieze,Uitvinding,0.873652,3.671,2.6,0.31219865,3,0.558823529,2.89,10,5,2.2,0.065573771,2.18,10,2.535,0
1,Quick,F,N,Y,64,128,85,auditory2visual,rightanswer,964,target,visual,v_de,Nee,Prachtige,Selectie,,3.629,2.065,0.328335374,1.8,0.447368421,3.25,3,9,2.33,0.209302326,2.06,8,2.655,1
1,Quick,F,N,Y,72,144,86,auditory2visual,rightanswer,413,target,visual,v_de,Nee,Glimmende,Ziekte,1.03236,3.7,3.5,0.33418223,3.67,0.580645161,1.94,2,9,3.33,0.087719298,2.98,6,2.46,3
1,Quick,F,N,Y,17,34,87,auditory2visual,rightanswer,536,target,visual,v_de,Ja,Vochtige,Mist,0.690076,3.302,4.12,0.335716777,3.71,0.245901639,1.77,1,8,4.53,0.425531915,3.16,4,2.465,15
1,Quick,F,N,Y,34,68,88,auditory2visual,wronganswer,915,target,visual,v_de,Ja,Soepele,Substituut,0.99406,2.75,2.58,0.340263692,2.73,0.327586207,1.56,3,7,2.43,0.352941176,0.6,10,1.08,0
1,Quick,F,N,Y,103,206,89,auditory2visual,rightanswer,765,target,visual,v_de,Nee,Vlezige,Huur,0.947536,3.086,2.965,0.342320262,3.13,0.361111111,1.04,0,7,2.8,0.323529412,2.95,4,1.995,9
1,Quick,F,N,Y,10,20,90,auditory2visual,wronganswer,1763,target,visual,v_de,Nee,Lenige,Belasting,0.991066,3.5,2.735,0.347826087,3.27,0.5,0.85,3,6,2.2,0.195652174,2.56,9,1.705,0
1,Quick,F,N,Y,82,164,91,auditory2visual,rightanswer,1428,target,visual,v_de,Nee,Vage,Plug,0.958488,3.05,3.1,0.348148148,2.07,0.296296296,2.18,14,4,4.13,0.4,1.56,4,1.87,3
1,Quick,F,N,Y,50,100,92,auditory2visual,wronganswer,671,target,visual,v_het,Ja,Schattig,Moment,0.785329,3.064,1.9,0.367049259,2.47,0.490196078,2.96,2,8,1.33,0.243902439,3.7,6,3.33,0
1,Quick,F,N,Y,12,24,93,auditory2visual,wronganswer,597,target,visual,v_de,Ja,Miniatuur,Beurs,0.955464,3.1,3.37,0.367857143,3.67,0.485714286,1.38,0,9,3.07,0.25,2.61,5,1.995,1
1,Quick,F,N,Y,79,158,94,auditory2visual,wronganswer,488,target,visual,v_het,Ja,Modderig,Sterven,0.856102,3.6,3.47,0.372710623,3.67,0.435897436,1.42,1,8,3.27,0.30952381,3.53,7,2.475,5
1,Quick,F,N,Y,47,94,95,auditory2visual,rightanswer,1436,target,visual,v_het,Ja,Rauw,Sterven,0.814663,3.1,3.535,0.385531136,3.8,0.461538462,2.24,11,4,3.27,0.30952381,3.53,7,2.885,5
1,Quick,F,N,Y,73,146,96,auditory2visual,wronganswer,732,target,visual,v_de,Ja,Verouderde,Pels,1.08048,3.188,3.7,0.406759907,2.8,0.454545455,1.18,0,10,4.6,0.358974359,1.26,4,1.22,9
1,Quick,F,N,Y,8,16,97,auditory2visual,rightanswer,662,target,visual,v_de,Ja,Heldere,Situatie,0.765895,4,3.2,0.411304348,3.8,0.54,2.33,7,7,2.6,0.282608696,3.33,8,2.83,1
1,Quick,F,N,Y,39,78,98,auditory2visual,rightanswer,597,target,visual,v_het,Nee,Behaard,Beheer,1.04916,2.825,3.2,0.420930233,4.07,0.441860465,1.45,6,7,2.33,0.4,1.95,6,1.7,5
1,Quick,F,N,Y,44,88,99,auditory2visual,rightanswer,1020,target,visual,v_de,Nee,Gloeiende,Prijs,0.941964,3.775,3.24,0.425925926,3.27,0.5,1.68,4,9,3.21,0.351851852,3.38,5,2.53,3
1,Quick,F,N,Y,90,180,100,auditory2visual,rightanswer,854,target,visual,v_de,Ja,Wazige,Verhulling,,3.367,3.47,0.47826087,3.47,0.652173913,1.51,2,6,,0.304347826,0.78,10,1.145,1
1,Quick,F,N,Y,35,70,101,auditory2visual,rightanswer,958,target,visual,v_het,Nee,Oranje,Concept,0.99857,3.513,2.965,0.498317915,4.4,0.655172414,2.45,12,6,1.53,0.341463415,2.34,7,2.395,1
1,Quick,F,N,Y,80,160,102,auditory2visual,rightanswer,478,target,visual,v_de,Nee,Groene,Mist,0.770451,4.057,4.365,0.503088538,4.2,0.580645161,2.94,7,6,4.53,0.425531915,3.16,4,3.05,15
1,Quick,F,N,Y,14,28,103,auditory2visual,wronganswer,1033,target,visual,v_het,Ja,Luchtig,Oosten,1.00194,2.762,2.87,0.510317461,2.47,0.377777778,1.73,1,7,3.27,0.642857143,2.71,6,2.22,5
1,Quick,F,N,Y,59,118,104,auditory2visual,rightanswer,615,target,visual,v_de,Nee,Rode,Huur,0.987542,3.661,3.565,0.531329924,4.33,0.739130435,3.19,1,4,2.8,0.323529412,2.95,4,3.07,9
1,Quick,F,N,Y,87,174,105,auditory2visual,rightanswer,888,target,visual,v_de,Nee,Lage,Magie,0.96932,3.386,2.335,0.558045977,2.8,0.633333333,2.61,0,4,1.87,0.482758621,2.75,5,2.68,1
1,Quick,F,N,Y,40,80,106,auditory2visual,rightanswer,410,target,visual,v_de,Nee,Fuchsia,Eigenaar,0.94063,3.902,3.735,0.577106519,4.54,0.918918919,1,0,7,2.93,0.235294118,3.02,8,2.01,1
1,Quick,F,N,Y,75,150,107,auditory2visual,wronganswer,808,target,visual,v_de,Ja,Gespikkelde,Pels,0.756941,3.313,4.235,0.602564103,3.87,0.846153846,0.78,0,11,4.6,0.358974359,1.26,4,1.02,9
1,Quick,F,N,Y,66,132,108,auditory2visual,wronganswer,758,target,visual,v_de,Ja,Blonde,Pupil,0.910093,4.05,4.1,0.620110447,4.4,0.679245283,2.55,4,6,3.8,0.56097561,1.66,5,2.105,0
1,Quick,F,N,Y,18,35,109,haptic2visual,rightanswer,291,context,haptic,h_het,Ja,Gebroken,Bot,0.552381,3.135,4,0.150597388,3.53,0.114754098,3.31,3,8,4.47,0.186440678,2.71,3,3.01,29
1,Quick,F,N,Y,60,119,110,haptic2visual,rightanswer,650,context,haptic,h_het,Nee,Drassig,Welzijn,1.02971,3.444,2.73,0.157072369,3.86,0.15625,0.78,0,7,1.6,0.157894737,2.33,7,1.555,0
1,Quick,F,N,Y,16,31,111,haptic2visual,rightanswer,883,context,haptic,h_het,Nee,Gewichtloos,Geweer,0.774708,3.214,3.83,0.177732794,2.73,0.263157895,1.28,0,11,4.93,0.092307692,3.06,6,2.17,3
1,Quick,F,N,Y,49,97,112,haptic2visual,wronganswer,692,context,haptic,h_de,Nee,Schurende,Spier,,3.357,4.67,0.195349848,,0.102564103,0.48,1,9,4.67,0.288135593,2.04,5,1.26,4
1,Quick,F,N,Y,32,63,113,haptic2visual,rightanswer,538,context,haptic,h_het,Nee,Kietelend,Pistool,,4.089,4.87,0.2,,0.307692308,0.6,1,9,4.87,0.092307692,3.23,7,1.915,0
1,Quick,F,N,Y,100,199,114,haptic2visual,rightanswer,791,context,haptic,h_het,Nee,Pijnvol,Heft,,2.65,2.71,0.205128205,,0.076923077,0.48,0,7,2.71,0.333333333,2.03,4,1.255,8
1,Quick,F,N,Y,42,83,115,haptic2visual,rightanswer,512,context,haptic,h_de,Nee,Jeukende,Schok,,2.857,3.33,0.205882353,,0.333333333,0.95,1,8,3.33,0.078431372,2.62,5,1.785,6
1,Quick,F,N,Y,52,103,116,haptic2visual,rightanswer,456,context,haptic,h_de,Nee,Kleverige,Sterkte,0.820183,3.5,2.565,0.215163321,3.53,0.323943662,1.32,1,9,1.6,0.106382979,2.48,7,1.9,2
1,Quick,F,N,Y,1,1,117,haptic2visual,rightanswer,448,context,haptic,h_de,Ja,Slijmerige,Vloeistof,0.650393,4,3.735,0.222513743,3.27,0.289855072,1.75,1,10,4.2,0.155172414,2.21,9,1.98,0
1,Quick,F,N,Y,78,155,118,haptic2visual,rightanswer,499,context,haptic,h_het,Nee,Doorweekt,Welzijn,0.995511,3.59,2.565,0.227756893,3.53,0.297619048,1.86,0,9,1.6,0.157894737,2.33,7,2.095,0
1,Quick,F,N,Y,5,9,119,haptic2visual,wronganswer,2008,context,haptic,h_het,Ja,Ruw,Contact,0.850669,3.357,3.135,0.228896104,3.87,0.321428571,2.49,11,3,2.4,0.136363636,3.37,7,2.93,2
1,Quick,F,N,Y,27,53,120,haptic2visual,wronganswer,650,context,haptic,h_het,Ja,Hard,Heft,0.890188,2.938,3.055,0.238095238,3.4,0.142857143,3.6,12,4,2.71,0.333333333,2.03,4,2.815,8
1,Quick,F,N,Y,25,49,121,haptic2visual,wronganswer,393,context,haptic,h_het,Ja,Mals,Contact,1.20917,3.982,3.1,0.242094862,3.8,0.347826087,1.64,13,4,2.4,0.136363636,3.37,7,2.505,2
1,Quick,F,N,Y,6,11,122,haptic2visual,rightanswer,657,context,haptic,h_het,Ja,Broos,Bot,0.873392,3.482,3.87,0.243220339,3.27,0.3,1.26,6,5,4.47,0.186440678,2.71,3,1.985,29
1,Quick,F,N,Y,43,85,123,haptic2visual,rightanswer,629,context,haptic,h_het,Ja,Heet,Pistool,0.773426,3.46,2.8,0.246153846,3.33,0.4,3.74,18,4,2.27,0.092307692,3.23,7,3.485,0
1,Quick,F,N,Y,24,47,124,haptic2visual,rightanswer,450,context,haptic,h_het,Nee,Zijdeachtig,Zeer,0.880074,3.911,1.6,0.255668399,,0.356164384,0.7,0,12,1.6,0.155172414,3.5,4,2.1,19
1,Quick,F,N,Y,29,57,125,haptic2visual,rightanswer,338,context,haptic,h_het,Nee,Pulserend,Heft,,2.393,2.71,0.256410256,,0.179487179,0.48,0,9,2.71,0.333333333,2.03,4,1.255,8
1,Quick,F,N,Y,51,101,126,haptic2visual,wronganswer,464,context,haptic,h_het,Ja,Bevriezend,Contact,,3.257,2.4,0.257836991,,0.379310345,0.3,1,10,2.4,0.136363636,3.37,7,1.835,2
1,Quick,F,N,Y,30,59,127,haptic2visual,wronganswer,643,context,haptic,h_de,Ja,Zachte,Spier,0.832062,3.982,4.2,0.262488849,3.73,0.236842105,2.59,14,6,4.67,0.288135593,2.04,5,2.315,4
1,Quick,F,N,Y,48,95,128,haptic2visual,rightanswer,1114,context,haptic,h_het,Nee,Hitsig,Vilt,0.809776,3.75,3.47,0.2625,2.4,0.125,1.46,1,7,4.54,0.4,1.4,4,1.43,11
1,Quick,F,N,Y,69,137,129,haptic2visual,rightanswer,623,context,haptic,h_de,Nee,Plakkende,Spier,,3.657,4.67,0.263115416,,0.238095238,0.48,2,9,4.67,0.288135593,2.04,5,1.26,4
1,Quick,F,N,Y,55,109,130,haptic2visual,wronganswer,709,context,haptic,h_de,Ja,Geneeskrachtige,Rots,0.920404,2.557,4.73,0.263673891,,0.176470588,1,0,15,4.73,0.350877193,2.62,4,1.81,8
1,Quick,F,N,Y,36,71,131,haptic2visual,rightanswer,1527,context,haptic,h_de,Nee,Taaie,Vloeistof,0.864188,3.875,3.835,0.283606151,3.47,0.301587302,2.19,10,5,4.2,0.265625,2.21,9,2.2,0
1,Quick,F,N,Y,93,185,132,haptic2visual,rightanswer,599,context,haptic,h_de,Nee,Stekelige,Deken,0.795281,3.786,4.465,0.284749035,4.2,0.285714286,0.9,0,9,4.73,0.283783784,2.6,5,1.75,18
1,Quick,F,N,Y,23,45,133,haptic2visual,rightanswer,401,context,haptic,h_het,Nee,Borstelig,Heft,0.898736,3.25,3.155,0.338095238,3.6,0.342857143,0.48,0,9,2.71,0.333333333,2.03,4,1.255,8
1,Quick,F,N,Y,58,115,134,haptic2visual,rightanswer,528,context,haptic,h_de,Ja,Korrelige,Rots,0.87875,3.357,4.43,0.34785239,4.13,0.344827586,0.3,0,9,4.73,0.350877193,2.62,4,1.46,8
1,Quick,F,N,Y,26,51,135,haptic2visual,rightanswer,578,context,haptic,h_de,Nee,Zere,Rots,0.845866,4.107,3.165,0.354010025,1.6,0.357142857,1.86,19,4,4.73,0.350877193,2.62,4,2.24,8
1,Quick,F,N,Y,105,209,136,haptic2visual,wronganswer,1084,context,haptic,h_de,Nee,Klamme,Geest,0.834267,2.567,2.57,0.355983773,3.27,0.470588235,1.4,10,6,1.87,0.24137931,3.28,5,2.34,9
1,Quick,F,N,Y,22,43,137,haptic2visual,rightanswer,496,context,haptic,h_de,Ja,Glibberige,Rots,0.709194,4.107,4.13,0.356598017,3.53,0.362318841,1.53,1,10,4.73,0.350877193,2.62,4,2.075,8
1,Quick,F,N,Y,102,203,138,haptic2visual,wronganswer,1026,context,haptic,h_het,Nee,Glad,Vilt,0.83905,4.375,4.305,0.362650603,4.07,0.325301205,2.17,2,6,4.54,0.4,1.4,4,1.785,11
1,Quick,F,N,Y,15,29,139,haptic2visual,rightanswer,759,context,haptic,h_het,Ja,Donzig,Zaad,0.672252,3.261,4.065,0.384415585,3.4,0.25974026,1.3,13,6,4.73,0.509090909,2.33,4,1.815,8
1,Quick,F,N,Y,63,125,140,haptic2visual,rightanswer,430,context,haptic,h_de,Ja,Warme,Massage,0.752902,4.306,3.835,0.388146168,3.47,0.393939394,2.87,9,5,4.2,0.382352941,2.31,7,2.59,3
1,Quick,F,N,Y,20,39,141,haptic2visual,wronganswer,607,context,haptic,h_het,Ja,Koel,Heft,0.866279,2.75,3.055,0.395833333,3.4,0.458333333,2.52,17,4,2.71,0.333333333,2.03,4,2.275,8
1,Quick,F,N,Y,74,147,142,haptic2visual,rightanswer,727,context,haptic,h_het,Ja,Slap,Vilt,0.723963,3.8,3.905,0.408333334,3.27,0.416666667,2.36,12,6,4.54,0.4,1.4,4,1.88,11
1,Quick,F,N,Y,41,81,143,haptic2visual,rightanswer,943,context,haptic,h_de,Ja,Tintelende,Spier,,3.795,4.67,0.415806927,,0.543478261,0.78,1,10,4.67,0.288135593,2.04,5,1.41,4
1,Quick,F,N,Y,81,161,144,haptic2visual,rightanswer,439,context,haptic,h_het,Nee,Koud,Vilt,0.738496,4.1,4.135,0.436111111,3.73,0.472222222,2.84,8,5,4.54,0.4,1.4,4,2.12,11
1,Quick,F,N,Y,46,91,145,visual2visual,rightanswer,506,context,visual,v_het,Nee,Breekbaar,Loon,0.920184,2.636,3.1,0.160427808,3.13,0.161764706,1.9,0,9,3.07,0.159090909,2.8,4,2.35,13
1,Quick,F,N,Y,67,133,146,visual2visual,rightanswer,484,context,visual,v_de,Nee,Weerkaatsende,Levering,,2.933,3.2,0.184491979,,0.323529412,0.3,0,13,3.2,0.045454546,2.19,8,1.245,1
1,Quick,F,N,Y,4,7,147,visual2visual,wronganswer,1269,context,visual,v_het,Nee,Druk,Loon,0.895827,2.848,3.035,0.188636364,3,0.218181818,3.65,7,4,3.07,0.159090909,2.8,4,3.225,13
1,Quick,F,N,Y,38,75,148,visual2visual,wronganswer,565,context,visual,v_het,Ja,Wild,Ideaal,0.864252,3.114,2.33,0.209756098,3.13,0.219512195,3.82,6,5,1.53,0.2,2.44,6,3.13,0
1,Quick,F,N,Y,37,73,149,visual2visual,rightanswer,805,context,visual,v_de,Nee,Vuile,Prins,0.938472,2.929,3.7,0.224053296,3.87,0.274193548,3.25,10,5,3.53,0.173913044,2.78,5,3.015,2
1,Quick,F,N,Y,3,5,150,visual2visual,wronganswer,1266,context,visual,v_het,Nee,Weinig,Fortuin,0.816837,2.214,1.965,0.229166667,1.33,0.208333333,3.49,3,6,2.6,0.25,2.69,7,3.09,0
1,Quick,F,N,Y,104,207,151,visual2visual,wronganswer,925,context,visual,v_het,Ja,Rommelend,Moment,,2.723,1.33,0.231042129,,0.218181818,0.6,12,9,1.33,0.243902439,3.7,6,2.15,0
1,Quick,F,N,Y,61,121,152,visual2visual,rightanswer,947,context,visual,v_de,Ja,Zanderige,Race,0.956875,3.014,4.17,0.235987792,3.87,0.132352941,0.7,0,9,4.47,0.339622642,2.5,4,1.6,9
1,Quick,F,N,Y,94,187,153,visual2visual,wronganswer,549,context,visual,v_het,Ja,Bloemrijk,Bezit,1.06813,3.714,2.715,0.249180328,3.43,0.4,0.7,0,9,2,0.098360656,3.16,5,1.93,4
1,Quick,F,N,Y,65,129,154,visual2visual,rightanswer,568,context,visual,v_het,Nee,Gewelfd,Moment,0.876797,2.702,2.4,0.250522648,3.47,0.257142857,0.3,1,7,1.33,0.243902439,3.7,6,2,0
1,Quick,F,N,Y,70,139,155,visual2visual,wronganswer,379,context,visual,v_de,Ja,Mottige,Verhulling,,2.867,2.07,0.255639098,2.07,0.142857143,0.6,1,7,,0.368421053,0.78,10,0.69,1
1,Quick,F,N,Y,13,25,156,visual2visual,rightanswer,663,context,visual,v_de,Ja,Onmetelijke,Levering,1.02835,2.958,2.335,0.260822511,1.47,0.476190476,1.26,0,11,3.2,0.045454546,2.19,8,1.725,1
1,Quick,F,N,Y,2,3,157,visual2visual,rightanswer,488,context,visual,v_het,Ja,Vreemd,Aspect,0.886507,2.438,1.57,0.270186336,1.67,0.15942029,3.51,2,6,1.47,0.380952381,2.04,6,2.775,0
1,Quick,F,N,Y,68,135,158,visual2visual,wronganswer,313,context,visual,v_het,Ja,Klonterig,Type,0.708814,2.794,2.63,0.271794872,3.53,0.276923077,0.78,0,9,1.73,0.266666667,3.08,4,1.93,5
1,Quick,F,N,Y,54,107,159,visual2visual,rightanswer,867,context,visual,v_het,Ja,Groot,Onderscheid,0.910296,3.438,2.5,0.283068783,3.2,0.380952381,3.7,6,5,1.8,0.185185185,2.1,11,2.9,1
1,Quick,F,N,Y,106,211,160,visual2visual,rightanswer,906,context,visual,v_de,Ja,Zwarte,Kip,0.88176,3.73,4.57,0.284567727,4.27,0.509433962,3.33,4,6,4.87,0.059701492,2.96,3,3.145,18
1,Quick,F,N,Y,53,105,161,visual2visual,rightanswer,846,context,visual,v_de,Nee,Dode,Levering,0.939932,2.556,3.265,0.287433156,3.33,0.529411765,3.24,19,4,3.2,0.045454546,2.19,8,2.715,1
1,Quick,F,N,Y,91,181,162,visual2visual,rightanswer,453,context,visual,v_het,Nee,Rot,Mandaat,1.07219,2.396,2.965,0.294117647,4,0.470588235,3.33,24,3,1.93,0.117647059,1.49,7,2.41,0
1,Quick,F,N,Y,33,65,163,visual2visual,rightanswer,623,context,visual,v_de,Nee,Getande,Boete,0.998269,2.946,3.1,0.29920635,3.33,0.288888889,0.7,1,7,2.87,0.30952381,2.47,5,1.585,8
1,Quick,F,N,Y,86,171,164,visual2visual,rightanswer,397,context,visual,v_het,Nee,Nevelig,Mandaat,0.885476,2.183,2.7,0.30020284,3.47,0.482758621,0.3,0,7,1.93,0.117647059,1.49,7,0.895,0
1,Quick,F,N,Y,88,175,165,visual2visual,rightanswer,700,context,visual,v_de,Nee,Papperige,Wacht,0.717868,2.381,3.235,0.307843137,3.27,0.215686274,0.3,0,9,3.2,0.4,3.87,5,2.085,10
1,Quick,F,N,Y,107,213,166,visual2visual,wronganswer,560,context,visual,v_de,Ja,Stomme,Plug,0.769553,2.85,3.065,0.325,2,0.25,3.43,10,6,4.13,0.4,1.56,4,2.495,3
1,Quick,F,N,Y,77,153,167,visual2visual,wronganswer,780,context,visual,v_de,Ja,Olieachtige,Aantekening,0.87788,3.343,3.53,0.345486111,,0.46875,0.6,0,11,3.53,0.222222222,1.76,11,1.18,0
1,Quick,F,N,Y,76,151,168,visual2visual,rightanswer,598,context,visual,v_de,Nee,Gevorkte,Race,0.945167,4.048,4.47,0.353144655,,0.366666667,0.6,0,8,4.47,0.339622642,2.5,4,1.55,9
1,Quick,F,N,Y,83,165,169,visual2visual,rightanswer,334,context,visual,v_het,Nee,Schitterend,Sterven,0.854525,3.444,2.735,0.361658457,2.2,0.413793104,2.99,2,11,3.27,0.30952381,3.53,7,3.26,5
1,Quick,F,N,Y,101,201,170,visual2visual,wronganswer,589,context,visual,v_de,Nee,Flikkerende,Socialist,,3.025,1.93,0.365418119,,0.535714286,1.18,1,11,1.93,0.195121951,1.46,9,1.32,0
1,Quick,F,N,Y,98,195,171,visual2visual,rightanswer,808,context,visual,v_het,Ja,Vlak,Dek,0.820377,3.738,3.7,0.373104146,3.07,0.441860465,3.21,9,4,4.33,0.304347826,2.8,3,3.005,22
1,Quick,F,N,Y,9,17,172,visual2visual,wronganswer,1134,context,visual,v_de,Nee,Langgerekte,Verbeelding,0.862372,3.821,2.3,0.37340302,3,0.380952381,0.48,2,11,1.6,0.365853659,2.49,11,1.485,0
1,Quick,F,N,Y,97,193,173,visual2visual,rightanswer,578,context,visual,v_het,Nee,Licht,Fortuin,0.945551,3.173,3.265,0.38125,3.93,0.5125,3.43,10,5,2.6,0.25,2.69,7,3.06,0
1,Quick,F,N,Y,11,21,174,visual2visual,wronganswer,819,context,visual,v_de,Ja,Ruige,Pupil,0.89657,3.813,3.265,0.391598916,2.73,0.222222222,2.09,5,5,3.8,0.56097561,1.66,5,1.875,0
1,Quick,F,N,Y,45,89,175,visual2visual,wronganswer,969,context,visual,v_de,Nee,Kleine,Reus,0.710016,3.679,3.5,0.404761905,2.73,0.476190476,3.67,4,6,4.27,0.333333333,2.29,4,2.98,7
1,Quick,F,N,Y,19,37,176,visual2visual,wronganswer,449,context,visual,v_de,Ja,Korte,Expansie,0.974158,3.625,2.565,0.413461539,3,0.576923077,3.05,14,5,2.13,0.25,1.04,8,2.045,0
1,Quick,F,N,Y,89,177,177,visual2visual,rightanswer,935,context,visual,v_de,Ja,Bolvormige,Formatie,0.83644,3.413,2.9,0.432432432,3.67,0.486486486,0.48,0,10,2.13,0.378378378,2.04,8,1.26,0
1,Quick,F,N,Y,84,167,178,visual2visual,wronganswer,241,context,visual,v_het,Ja,Donker,Moment,0.684565,2.952,2.665,0.439024391,4,0.634146342,3.28,1,6,1.33,0.243902439,3.7,6,3.49,0
1,Quick,F,N,Y,7,13,179,visual2visual,rightanswer,393,context,visual,v_het,Ja,Glitterend,Effect,,3.671,2.07,0.464892831,,0.515151515,0.48,0,10,2.07,0.414634146,2.77,6,1.625,0
1,Quick,F,N,Y,31,61,180,visual2visual,rightanswer,761,context,visual,v_de,Nee,Doorschijnende,Verhulling,,3.792,3.5,0.501011123,3.5,0.697674419,0.48,0,14,,0.304347826,0.78,10,0.63,1
1,Quick,F,N,Y,82,163,181,auditory2visual,rightanswer,745,context,auditory,a_de,Ja,Zeurende,Wrok,,2.548,1.8,0.179861111,,0.270833333,1.38,2,8,1.8,0.088888889,2.2,4,1.79,4
1,Quick,F,N,Y,64,127,182,auditory2visual,wronganswer,494,context,auditory,a_de,Ja,Jammerende,Poëzie,,2.722,2.93,0.182138481,,0.254901961,1.2,1,10,2.93,0.109375,2.42,6,1.81,0
1,Quick,F,N,Y,59,117,183,auditory2visual,wronganswer,310,context,auditory,a_de,Ja,Ritmische,Neiging,0.86689,2.522,2.535,0.19375,3.27,0.2,1,0,9,1.8,0.1875,2.16,7,1.58,0
1,Quick,F,N,Y,71,141,184,auditory2visual,rightanswer,336,context,auditory,a_het,Nee,Fluitend,Verleden,,2.778,1.33,0.223112536,,0.298076923,1.04,2,8,1.33,0.148148148,3.3,8,2.17,7
1,Quick,F,N,Y,92,183,185,auditory2visual,rightanswer,1006,context,auditory,a_de,Nee,Krijsende,Dichter,,2.667,2.87,0.22718254,,0.232142857,1.32,2,9,2.87,0.222222222,2.96,7,2.14,6
1,Quick,F,N,Y,10,19,186,auditory2visual,rightanswer,495,context,auditory,a_de,Nee,Stormachtige,Eis,0.9187,3.656,2.6,0.232600733,3.4,0.131868132,1.45,1,12,1.8,0.333333333,2.64,3,2.045,13
1,Quick,F,N,Y,79,157,187,auditory2visual,rightanswer,1507,context,auditory,a_het,Nee,Knarsend,Gerucht,,4.536,2,0.267857143,,0.25,0.7,1,9,2,0.285714286,2.61,7,1.655,4
1,Quick,F,N,Y,14,27,188,auditory2visual,rightanswer,514,context,auditory,a_de,Nee,Giechelende,Overeenkomst,,4.042,1.93,0.270701755,,0.394736842,0.78,1,11,1.93,0.146666667,2.73,12,1.755,1
1,Quick,F,N,Y,34,67,189,auditory2visual,wronganswer,475,context,auditory,a_het,Ja,Fluisterend,Doel,,3.056,2.13,0.300684485,,0.389830508,1.3,2,11,2.13,0.211538462,3.3,4,2.3,16
1,Quick,F,N,Y,85,169,190,auditory2visual,rightanswer,566,context,auditory,a_de,Nee,Gierende,Seconde,,3.411,2.87,0.306603774,,0.5,1.08,2,8,2.87,0.113207547,2.85,7,1.965,1
1,Quick,F,N,Y,35,69,191,auditory2visual,rightanswer,881,context,auditory,a_het,Nee,Schreeuwend,Compliment,0.977691,3.444,3.035,0.308147397,3.67,0.224137931,2.02,2,11,2.4,0.392156863,2.59,10,2.305,0
1,Quick,F,N,Y,103,205,192,auditory2visual,wronganswer,697,context,auditory,a_de,Ja,Knallende,Herinnering,,3.286,1.87,0.309210527,,0.368421053,1.38,2,9,1.87,0.25,2.8,11,2.09,0
1,Quick,F,N,Y,62,123,193,auditory2visual,wronganswer,664,context,auditory,a_de,Ja,Sissende,Laster,,2.95,2.33,0.309615385,,0.369230769,1.04,0,8,2.33,0.25,1.84,6,1.44,4
1,Quick,F,N,Y,47,93,194,auditory2visual,rightanswer,467,context,auditory,a_het,Nee,Gillend,Feit,,3.389,1.67,0.313265306,,0.326530612,1.87,2,7,1.67,0.3,3.15,4,2.51,3
1,Quick,F,N,Y,96,191,195,auditory2visual,wronganswer,811,context,auditory,a_de,Ja,Morrende,Leiding,,3.571,2.67,0.326794258,,0.526315789,0.3,0,8,2.67,0.127272727,3.09,7,1.695,0
1,Quick,F,N,Y,95,189,196,auditory2visual,rightanswer,900,context,auditory,a_het,Nee,Schor,Enthousiasme,0.859341,4.578,2.83,0.337784091,3.13,0.59375,1.11,7,5,2.53,0.081818182,2.25,12,1.68,1
1,Quick,F,N,Y,21,41,197,auditory2visual,rightanswer,658,context,auditory,a_het,Nee,Lachend,Wantrouwen,0.921945,3.829,2.9,0.34375,4,0.5,2.03,16,7,1.8,0.1875,1.98,10,2.005,1
1,Quick,F,N,Y,108,215,198,auditory2visual,wronganswer,423,context,auditory,a_de,Ja,Donderende,Vergadering,,3.381,3.27,0.373122834,,0.358490566,0.85,4,10,3.27,0.387755102,2.93,11,1.89,0
1,Quick,F,N,Y,57,113,199,auditory2visual,rightanswer,956,context,auditory,a_de,Nee,Blaffende,Felicitatie,,4.295,2.67,0.374603175,,0.471428571,1.34,2,9,2.67,0.277777778,1.2,11,1.27,1
1,Quick,F,N,Y,99,197,200,auditory2visual,wronganswer,317,context,auditory,a_het,Ja,Stil,Voornemen,0.876852,3.686,2.465,0.37515763,3.2,0.442622951,3.58,8,4,1.73,0.307692308,1.61,9,2.595,3
1,Quick,F,N,Y,90,179,201,auditory2visual,rightanswer,619,context,auditory,a_het,Ja,Luidruchtig,Noodgeval,0.814128,4.014,2.53,0.385799404,3.13,0.526315789,2.05,1,11,1.93,0.245283019,2.74,9,2.395,0
1,Quick,F,N,Y,40,79,202,auditory2visual,rightanswer,584,context,auditory,a_de,Nee,Rinkelende,Verklaring,,3.533,1.8,0.404634581,,0.515151515,0.9,1,10,1.8,0.294117647,3.13,10,2.015,0
1,Quick,F,N,Y,50,99,203,auditory2visual,rightanswer,893,context,auditory,a_het,Ja,Luid,Welkom,0.868225,3.971,2.765,0.405092593,3.53,0.625,2.54,11,4,2,0.185185185,3.57,6,3.055,2
1,Quick,F,N,Y,17,33,204,auditory2visual,rightanswer,363,context,auditory,a_de,Nee,Grommende,Economie,,3.771,1.53,0.412207358,,0.47826087,0.95,1,9,1.53,0.346153846,2.44,8,1.695,0
1,Quick,F,N,Y,44,87,205,auditory2visual,wronganswer,760,context,auditory,a_het,Ja,Gedempt,Verleden,0.931374,3.378,1.8,0.413359789,2.27,0.678571429,1.18,1,7,1.33,0.148148148,3.3,8,2.24,7
1,Quick,F,N,Y,66,131,206,auditory2visual,rightanswer,1069,context,auditory,a_het,Nee,Kreunend,Gelach,,4.882,4,0.416666667,,0.5,0.78,1,8,4,0.333333333,1.95,6,1.365,0
1,Quick,F,N,Y,87,173,207,auditory2visual,wronganswer,921,context,auditory,a_de,Ja,Piepende,Aankondiging,,3.83,2.2,0.451495727,,0.422222222,1.08,1,8,2.2,0.480769231,2.06,12,1.57,0
1,Quick,F,N,Y,75,149,208,auditory2visual,rightanswer,882,context,auditory,a_de,Nee,Krakende,Raad,,4.111,2.33,0.460685484,,0.483870968,1.26,1,8,2.33,0.4375,3.35,4,2.305,14
1,Quick,F,N,Y,12,23,209,auditory2visual,rightanswer,497,context,auditory,a_het,Nee,Oorverdovend,Plan,0.973202,3.444,2.965,0.46474359,3,0.673076923,1.34,0,12,2.93,0.256410256,3.47,4,2.405,7
1,Quick,F,N,Y,56,111,210,auditory2visual,rightanswer,461,context,auditory,a_het,Ja,Geluidloos,Antwoord,0.810143,4,2.835,0.470746108,3,0.52173913,1.11,0,10,2.67,0.419753086,3.53,8,2.32,1
1,Quick,F,N,Y,28,55,211,auditory2visual,rightanswer,744,context,auditory,a_de,Nee,Melodieuze,Kennis,0.959205,3.811,2,0.494623656,2.53,0.666666667,0.85,0,10,1.47,0.322580645,3.22,6,2.035,1
1,Quick,F,N,Y,8,15,212,auditory2visual,wronganswer,671,context,auditory,a_het,Ja,Zoemend,Advies,,4.59,1.87,0.506112145,,0.603773585,0.85,0,7,1.87,0.408450704,3.04,6,1.945,0
1,Quick,F,N,Y,39,77,213,auditory2visual,wronganswer,901,context,auditory,a_het,Ja,Hoorbaar,Plan,0.964573,3.444,2.9,0.513621795,2.87,0.770833333,1.15,0,8,2.93,0.256410256,3.47,4,2.31,7
1,Quick,F,N,Y,80,159,214,auditory2visual,rightanswer,373,context,auditory,a_het,Ja,Schel,Geluid,0.618908,3.619,3.27,0.520108696,2.87,0.475,1,10,5,3.67,0.565217391,3.14,6,2.07,4
1,Quick,F,N,Y,73,145,215,auditory2visual,wronganswer,809,context,auditory,a_het,Ja,Hese,Verhoor,0.93572,3.159,4.335,0.569157393,3.8,0.705882353,1.18,18,4,4.87,0.432432433,2.43,7,1.805,4
1,Quick,F,N,Y,72,143,216,auditory2visual,rightanswer,564,context,auditory,a_het,Nee,Lauw,Volume,0.871071,2.563,3.265,0.57184529,3.53,0.662921348,1.54,10,4,3,0.480769231,1.99,6,1.765,0
2,Quick,F,N,Y,2,4,1,haptic2visual,rightanswer,429,target,visual,v_het,Nee,Kokend,Mandaat,0.901574,2.306,1.93,0.131191951,,0.144736842,1.77,4,6,,0.117647059,1.49,7,1.63,0
2,Quick,F,N,Y,28,56,2,haptic2visual,wronganswer,1602,target,visual,v_de,Ja,Zwoele,Levering,0.973728,2.733,2.865,0.147727273,,0.25,1.48,2,6,,0.045454546,2.19,8,1.835,1
2,Quick,F,N,Y,52,104,3,haptic2visual,rightanswer,499,target,visual,v_de,Nee,Barstende,Veiligheid,,2.889,1.93,0.212937063,,0.107692308,1.57,2,9,,0.318181818,3.13,10,2.35,3
2,Quick,F,N,Y,14,28,4,haptic2visual,rightanswer,659,target,visual,v_de,Ja,Beschimmelde,Levering,0.87933,3.333,3.335,0.272727273,,0.5,1.2,0,12,,0.045454546,2.19,8,1.695,1
2,Quick,F,N,Y,91,182,5,haptic2visual,rightanswer,741,target,visual,v_de,Ja,Stevige,Veiligheid,0.928228,3.188,2.5,0.274475525,,0.230769231,2.38,1,7,,0.318181818,3.13,10,2.755,3
2,Quick,F,N,Y,30,60,6,haptic2visual,wronganswer,1885,target,visual,v_de,Nee,Grove,Sierlijkheid,0.931037,3.446,2.07,0.274487836,,0.253521127,2.16,6,5,,0.295454545,0.6,12,1.38,0
2,Quick,F,N,Y,96,192,7,haptic2visual,rightanswer,754,target,visual,v_het,Ja,Schriel,Loon,0.913305,3.369,2.7,0.277219873,,0.395348837,1.04,0,7,,0.159090909,2.8,4,1.92,13
2,Quick,F,N,Y,12,24,8,haptic2visual,wronganswer,1331,target,visual,v_de,Ja,Plantaardige,Aantekening,0.819882,3.143,3.165,0.288194445,,0.354166667,1.26,0,12,,0.222222222,1.76,11,1.51,0
2,Quick,F,N,Y,18,36,9,haptic2visual,rightanswer,538,target,visual,v_de,Ja,Saaie,President,0.934654,2.516,2.53,0.292832168,,0.153846154,2.57,7,5,,0.431818182,3.07,9,2.82,0
2,Quick,F,N,Y,51,102,10,haptic2visual,rightanswer,546,target,visual,v_de,Nee,Knappe,Ziekte,0.889361,3.4,2.83,0.302480339,,0.517241379,3.01,11,6,,0.087719298,2.98,6,2.995,3
2,Quick,F,N,Y,42,84,11,haptic2visual,rightanswer,992,target,visual,v_de,Ja,Droge,Weerstand,1.0069,3.671,3.065,0.309200604,,0.461538462,2.5,4,5,,0.156862745,2.36,9,2.43,0
2,Quick,F,N,Y,69,138,12,haptic2visual,wronganswer,561,target,visual,v_de,Ja,Gesmolten,Weerstand,0.945311,3.671,2.33,0.31372549,,0.470588235,2.18,0,9,,0.156862745,2.36,9,2.27,0
2,Quick,F,N,Y,81,162,13,haptic2visual,wronganswer,544,target,visual,v_de,Ja,Absorberende,Verbeelding,,2.683,1.6,0.317073171,,0.268292683,0.9,1,12,,0.365853659,2.49,11,1.695,0
2,Quick,F,N,Y,21,42,14,haptic2visual,wronganswer,889,target,visual,v_de,Nee,Diepe,Plug,0.914433,3.5,3.6,0.326666667,,0.253333333,2.69,10,5,,0.4,1.56,4,2.125,3
2,Quick,F,N,Y,85,170,15,haptic2visual,rightanswer,550,target,visual,v_de,Nee,Betoverende,Plug,0.938647,2.85,3.2,0.330434783,,0.260869565,1.72,2,11,,0.4,1.56,4,1.64,3
2,Quick,F,N,Y,108,216,16,haptic2visual,rightanswer,536,target,visual,v_de,Ja,Lege,Aantekening,0.816074,3.31,3.5,0.331111111,,0.44,2.91,13,4,,0.222222222,1.76,11,2.335,0
2,Quick,F,N,Y,79,158,17,haptic2visual,wronganswer,1201,target,visual,v_de,Ja,Ondiepe,Kwestie,0.879064,2.938,2.365,0.332810867,,0.424242424,1.54,1,7,,0.24137931,3.03,7,2.285,1
2,Quick,F,N,Y,48,96,18,haptic2visual,rightanswer,522,target,visual,v_het,Ja,Somber,Type,0.926306,2.516,2.03,0.333333334,,0.4,2.43,2,6,,0.266666667,3.08,4,2.755,5
2,Quick,F,N,Y,32,64,19,haptic2visual,wronganswer,627,target,visual,v_de,Ja,Jankende,Proportie,,3.013,1.8,0.346082779,,0.207317073,1.36,2,8,,0.484848485,1.32,9,1.34,1
2,Quick,F,N,Y,87,174,20,haptic2visual,wronganswer,466,target,visual,v_de,Ja,Verkoolde,Plug,0.91221,2.85,4.13,0.362790698,,0.325581395,1.32,1,9,,0.4,1.56,4,1.44,3
2,Quick,F,N,Y,63,126,21,haptic2visual,rightanswer,488,target,visual,v_het,Nee,Amber,Sterven,0.779902,2.857,3.725,0.364439325,,0.419354839,1.97,1,5,,0.30952381,3.53,7,2.75,5
2,Quick,F,N,Y,59,118,22,haptic2visual,wronganswer,743,target,visual,v_de,Ja,Roestige,Hoeveelheid,0.9656,3.964,2.73,0.366666667,,0.433333333,1.65,1,8,,0.3,2.5,11,2.075,0
2,Quick,F,N,Y,62,124,23,haptic2visual,rightanswer,571,target,visual,v_de,Nee,Blauwe,Boerderij,0.983035,3.579,4.365,0.36710444,,0.682926829,3.14,4,6,,0.051282051,2.77,9,2.955,0
2,Quick,F,N,Y,17,34,24,haptic2visual,rightanswer,942,target,visual,v_het,Nee,Onrijp,Dek,1.0097,3.063,3.73,0.367860188,,0.431372549,0.85,0,6,,0.304347826,2.8,3,1.825,22
2,Quick,F,N,Y,92,184,25,haptic2visual,rightanswer,602,target,visual,v_de,Ja,Schone,President,0.920504,3.471,2.73,0.370230079,,0.308641975,2.82,4,6,,0.431818182,3.07,9,2.945,0
2,Quick,F,N,Y,10,20,26,haptic2visual,rightanswer,1429,target,visual,v_het,Ja,Spits,Type,0.928955,3.321,2.7,0.375980393,,0.485294118,1.89,3,5,,0.266666667,3.08,4,2.485,5
2,Quick,F,N,Y,29,58,27,haptic2visual,rightanswer,624,target,visual,v_de,Nee,Gebogen,Gelegenheid,0.96045,3.151,2.835,0.383802817,,0.267605634,2.04,8,7,,0.5,2.75,11,2.395,1
2,Quick,F,N,Y,93,186,28,haptic2visual,rightanswer,733,target,visual,v_de,Nee,Groeiende,Wacht,,3.527,3.2,0.415384616,,0.430769231,1.91,3,9,,0.4,3.87,5,2.89,10
2,Quick,F,N,Y,86,172,29,haptic2visual,rightanswer,811,target,visual,v_het,Ja,Tenger,Effect,0.917275,3.671,2.535,0.417843389,,0.421052632,1.3,1,6,,0.414634146,2.77,6,2.035,0
2,Quick,F,N,Y,107,214,30,haptic2visual,rightanswer,773,target,visual,v_de,Nee,Beige,Hoeveelheid,0.950069,3.548,3.265,0.420833334,,0.541666667,1.76,1,5,,0.3,2.5,11,2.13,0
2,Quick,F,N,Y,7,14,31,haptic2visual,rightanswer,774,target,visual,v_de,Nee,Gevlekte,Belasting,0.981789,3.528,3.1,0.438251619,,0.680851064,1.4,3,8,,0.195652174,2.56,9,1.98,0
2,Quick,F,N,Y,89,178,32,haptic2visual,wronganswer,482,target,visual,v_het,Ja,Briljant,Oosten,1.06043,2.373,2.6,0.446428572,,0.25,2.85,1,8,,0.642857143,2.71,6,2.78,5
2,Quick,F,N,Y,106,212,33,haptic2visual,rightanswer,588,target,visual,v_het,Ja,Elegant,Effect,0.949052,3.238,2.2,0.457317073,,0.5,2.31,1,7,,0.414634146,2.77,6,2.54,0
2,Quick,F,N,Y,67,134,34,haptic2visual,rightanswer,829,target,visual,v_de,Ja,Effen,Deel,0.93126,3.675,3.035,0.503496504,,0.461538462,1.26,4,5,,0.545454545,3.54,4,2.4,13
2,Quick,F,N,Y,84,168,35,haptic2visual,rightanswer,651,target,visual,v_het,Nee,Geblokt,Oosten,1.02688,3.151,3.27,0.528975742,,0.41509434,1.11,1,7,,0.642857143,2.71,6,1.91,5
2,Quick,F,N,Y,58,116,36,haptic2visual,rightanswer,691,target,visual,v_de,Ja,Gouden,Gelegenheid,0.897149,3.529,2.87,0.53125,,0.5625,2.95,7,6,,0.5,2.75,11,2.85,1
2,Quick,F,N,Y,68,136,37,visual2visual,wronganswer,820,target,visual,v_het,Ja,Brak,Bezit,0.901718,3.314,2.71,0.149180328,,0.2,2.9,7,4,,0.098360656,3.16,5,3.03,4
2,Quick,F,N,Y,103,206,38,visual2visual,rightanswer,506,target,visual,v_de,Nee,Elastische,Boerderij,1.00684,3.982,3.8,0.15275967,,0.254237288,1.04,1,10,,0.051282051,2.77,9,1.905,0
2,Quick,F,N,Y,36,72,39,visual2visual,wronganswer,1372,target,visual,v_het,Ja,Hol,Bezit,0.907924,3.414,3.2,0.167601381,,0.236842105,2.56,9,3,,0.098360656,3.16,5,2.86,4
2,Quick,F,N,Y,56,112,40,visual2visual,rightanswer,641,target,visual,v_de,Ja,Smerige,Boerderij,0.787197,3.691,3.765,0.18005279,,0.308823529,2.94,3,7,,0.051282051,2.77,9,2.855,0
2,Quick,F,N,Y,65,130,41,visual2visual,rightanswer,658,target,visual,v_de,Nee,Ijzige,Beurs,1.0372,2.5,3.07,0.210714286,,0.171428571,1.57,2,6,,0.25,2.61,5,2.09,1
2,Quick,F,N,Y,78,156,42,visual2visual,rightanswer,920,target,visual,v_het,Ja,Smakeloos,Moment,0.925003,1.986,1.9,0.22195122,,0.2,1.75,0,9,,0.243902439,3.7,6,2.725,0
2,Quick,F,N,Y,57,114,43,visual2visual,rightanswer,435,target,visual,v_het,Nee,Koortsig,Fortuin,1.05603,2.414,2.635,0.25,,0.25,1.42,0,8,,0.25,2.69,7,2.055,0
2,Quick,F,N,Y,4,8,44,visual2visual,rightanswer,734,target,visual,v_de,Ja,Zwakke,Worp,0.819115,3.402,3.17,0.255578094,,0.275862069,2.74,4,6,,0.235294118,2.23,4,2.485,4
2,Quick,F,N,Y,104,208,45,visual2visual,wronganswer,1083,target,visual,v_de,Ja,Kille,Aantekening,0.881481,2.443,3.37,0.258169935,,0.294117647,1.91,20,5,,0.222222222,1.76,11,1.835,0
2,Quick,F,N,Y,19,38,46,visual2visual,wronganswer,997,target,visual,v_het,Nee,Solide,Ideaal,0.891126,3.214,1.85,0.269354839,,0.338709677,2,0,6,,0.2,2.44,6,2.22,0
2,Quick,F,N,Y,105,210,47,visual2visual,wronganswer,701,target,visual,v_de,Ja,Bloedige,Worp,0.838693,3.314,3.835,0.295066414,,0.35483871,1.85,2,8,,0.235294118,2.23,4,2.04,4
2,Quick,F,N,Y,1,2,48,visual2visual,wronganswer,365,target,visual,v_de,Ja,Rotsige,Beurs,0.981565,2.6,3.07,0.3046875,,0.359375,0.78,1,7,,0.25,2.61,5,1.695,1
2,Quick,F,N,Y,40,80,49,visual2visual,rightanswer,659,target,visual,v_het,Nee,Mistig,Loon,0.934111,3.286,3.47,0.308116883,,0.457142857,1.7,2,6,,0.159090909,2.8,4,2.25,13
2,Quick,F,N,Y,46,92,50,visual2visual,rightanswer,689,target,visual,v_de,Ja,Losse,Levering,0.933941,3.033,3.2,0.311188812,,0.576923077,2.47,20,5,,0.045454546,2.19,8,2.33,1
2,Quick,F,N,Y,101,202,51,visual2visual,wronganswer,772,target,visual,v_de,Nee,Aardse,Magie,0.839526,2.286,1.97,0.312807882,,0.142857143,2.18,6,6,,0.482758621,2.75,5,2.465,1
2,Quick,F,N,Y,98,196,52,visual2visual,rightanswer,518,target,visual,v_de,Ja,Lelijke,Prins,0.785819,3.741,2.83,0.319715143,,0.465517241,2.84,2,7,,0.173913044,2.78,5,2.81,2
2,Quick,F,N,Y,74,148,53,visual2visual,wronganswer,620,target,visual,v_de,Nee,Enorme,Plug,0.970384,3.25,2.965,0.338888889,,0.277777778,3.16,2,6,,0.4,1.56,4,2.36,3
2,Quick,F,N,Y,99,198,54,visual2visual,rightanswer,561,target,visual,v_de,Nee,Fonkelende,Verhulling,,3.367,3.87,0.339673913,,0.375,1.3,1,10,,0.304347826,0.78,10,1.04,1
2,Quick,F,N,Y,5,10,55,visual2visual,wronganswer,667,target,visual,v_de,Nee,Sterke,Wacht,0.683177,3.027,2.965,0.350793651,,0.301587302,3.08,7,6,,0.4,3.87,5,3.475,10
2,Quick,F,N,Y,27,54,56,visual2visual,wronganswer,876,target,visual,v_het,Ja,Transparant,Bezit,1.05536,3.777,2.735,0.353528154,,0.608695652,1.38,0,11,,0.098360656,3.16,5,2.27,4
2,Quick,F,N,Y,50,100,57,visual2visual,wronganswer,886,target,visual,v_de,Nee,Compacte,Reus,1.01699,2.984,3.435,0.354166667,,0.375,1.43,1,8,,0.333333333,2.29,4,1.86,7
2,Quick,F,N,Y,35,70,58,visual2visual,wronganswer,796,target,visual,v_de,Ja,Bleke,Ziekte,0.818318,3.6,3.63,0.354204477,,0.620689655,1.92,4,5,,0.087719298,2.98,6,2.45,3
2,Quick,F,N,Y,9,18,59,visual2visual,rightanswer,695,target,visual,v_de,Nee,Stompe,Wacht,0.850451,3.214,3.445,0.366666667,,0.333333333,0.85,5,6,,0.4,3.87,5,2.36,10
2,Quick,F,N,Y,41,82,60,visual2visual,wronganswer,1264,target,visual,v_het,Ja,Nauw,Effect,1.04643,3.371,2.4,0.37398374,,0.333333333,2.36,8,4,,0.414634146,2.77,6,2.565,0
2,Quick,F,N,Y,13,26,61,visual2visual,rightanswer,717,target,visual,v_de,Nee,Gevouwen,Situatie,,3.571,2.27,0.383951407,,0.485294118,1.51,1,8,,0.282608696,3.33,8,2.42,1
2,Quick,F,N,Y,26,52,62,visual2visual,rightanswer,571,target,visual,v_de,Nee,Pluizige,Boete,0.902354,3.571,3.435,0.385531136,,0.461538462,1.46,0,8,,0.30952381,2.47,5,1.965,8
2,Quick,F,N,Y,20,40,63,visual2visual,rightanswer,1070,target,visual,v_het,Nee,Gevormd,Oosten,0.945895,2.762,3.27,0.394009217,,0.14516129,2.29,0,7,,0.642857143,2.71,6,2.5,5
2,Quick,F,N,Y,53,106,64,visual2visual,wronganswer,1542,target,visual,v_de,Nee,Rechthoekige,Sierlijkheid,0.610794,3.884,4,0.417568543,,0.53968254,1,0,12,,0.295454545,0.6,12,0.8,0
2,Quick,F,N,Y,66,132,65,visual2visual,rightanswer,554,target,visual,v_het,Ja,Bruin,Type,0.708907,2.794,2.765,0.442857143,,0.619047619,2.68,3,5,,0.266666667,3.08,4,2.88,5
2,Quick,F,N,Y,77,154,66,visual2visual,rightanswer,2020,target,visual,v_het,Nee,Kleurrijk,Fortuin,0.914891,3.214,2.9,0.447916667,,0.645833333,1.76,1,9,,0.25,2.69,7,2.225,0
2,Quick,F,N,Y,64,128,67,visual2visual,rightanswer,438,target,visual,v_de,Nee,Bronzen,Boete,0.985813,2.96,3.3,0.480107527,,0.766666667,1.61,2,7,,0.193548387,2.47,5,2.04,8
2,Quick,F,N,Y,49,98,68,visual2visual,rightanswer,1125,target,visual,v_de,Nee,Paarse,Vrijheid,1.01049,3.955,2.8,0.497389654,,0.790697674,2.15,10,6,,0.204081633,3.11,8,2.63,0
2,Quick,F,N,Y,3,6,69,visual2visual,rightanswer,944,target,visual,v_de,Ja,Lichtbruine,Verhulling,,3.967,3.6,0.502173913,,0.7,0.9,0,11,,0.304347826,0.78,10,0.84,1
2,Quick,F,N,Y,82,164,70,visual2visual,wronganswer,791,target,visual,v_het,Nee,Onbeweeglijk,Gebaar,0.872001,3.722,3.03,0.51532567,,0.444444444,1.23,0,12,,0.586206896,2.48,6,1.855,4
2,Quick,F,N,Y,73,146,71,visual2visual,wronganswer,846,target,visual,v_de,Ja,Hoge,Plug,1.03526,4.05,3.63,0.54375,,0.6875,3.19,21,4,,0.4,1.56,4,2.375,3
2,Quick,F,N,Y,55,110,72,visual2visual,rightanswer,470,target,visual,v_het,Ja,Grotesk,Effect,0.94522,3.571,2.075,0.635888502,,0.857142857,1.34,1,7,,0.414634146,2.77,6,2.055,0
2,Quick,F,N,Y,39,78,73,auditory2visual,wronganswer,859,target,visual,v_de,Nee,Pijnlijke,Levering,0.980362,2.611,3.035,0.046536797,,0.047619048,2.4,1,9,,0.045454546,2.19,8,2.295,1
2,Quick,F,N,Y,15,30,74,auditory2visual,rightanswer,336,target,visual,v_de,Ja,Levende,Kip,0.76092,3.486,3.9,0.079850746,,0.1,2.83,5,7,,0.059701492,2.96,3,2.895,18
2,Quick,F,N,Y,33,66,75,auditory2visual,rightanswer,693,target,visual,v_de,Nee,Ongelijke,Uitvinding,0.878655,3.571,1.865,0.157786886,,0.25,1.23,0,9,,0.065573771,2.18,10,1.705,0
2,Quick,F,N,Y,37,74,76,auditory2visual,wronganswer,509,target,visual,v_de,Ja,Krullende,Vrijheid,,3.365,1.47,0.213981115,,0.223880597,0.85,1,9,,0.204081633,3.11,8,1.98,0
2,Quick,F,N,Y,43,86,77,auditory2visual,rightanswer,450,target,visual,v_het,Nee,Hobbelig,Loon,1.03941,2.986,3.335,0.237440192,,0.315789474,1.58,0,8,,0.159090909,2.8,4,2.19,13
2,Quick,F,N,Y,97,194,78,auditory2visual,wronganswer,625,target,visual,v_de,Ja,Doffe,Eigenaar,0.958726,3.048,3.065,0.256535948,,0.277777778,1.34,2,5,,0.235294118,3.02,8,2.18,1
2,Quick,F,N,Y,54,108,79,auditory2visual,rightanswer,795,target,visual,v_de,Nee,Vallende,Verhulling,,3.517,,0.26905703,,0.233766234,1.99,2,8,,0.304347826,0.78,10,1.385,1
2,Quick,F,N,Y,47,94,80,auditory2visual,rightanswer,525,target,visual,v_de,Nee,Pure,Plug,0.995621,2.875,3.23,0.271428572,,0.142857143,2.74,8,4,,0.4,1.56,4,2.15,3
2,Quick,F,N,Y,102,204,81,auditory2visual,rightanswer,569,target,visual,v_het,Nee,Stoffig,Loon,0.881351,3.119,3.47,0.277958153,,0.396825397,1.76,1,7,,0.159090909,2.8,4,2.28,13
2,Quick,F,N,Y,22,44,82,auditory2visual,rightanswer,934,target,visual,v_de,Nee,Golvende,Plug,0.923349,3.875,4.13,0.284415585,,0.168831169,1.3,2,8,,0.4,1.56,4,1.43,3
2,Quick,F,N,Y,61,122,83,auditory2visual,rightanswer,565,target,visual,v_de,Ja,Metalen,Plug,0.86532,3.75,4.1,0.3,,0.2,2.38,1,7,,0.4,1.56,4,1.97,3
2,Quick,F,N,Y,23,46,84,auditory2visual,rightanswer,1577,target,visual,v_de,Ja,Vieze,Uitvinding,0.873652,3.671,2.6,0.31219865,,0.558823529,2.89,10,5,,0.065573771,2.18,10,2.535,0
2,Quick,F,N,Y,31,62,85,auditory2visual,wronganswer,843,target,visual,v_de,Nee,Prachtige,Selectie,,3.629,2.065,0.328335374,,0.447368421,3.25,3,9,,0.209302326,2.06,8,2.655,1
2,Quick,F,N,Y,80,160,86,auditory2visual,rightanswer,681,target,visual,v_de,Nee,Glimmende,Ziekte,1.03236,3.7,3.5,0.33418223,,0.580645161,1.94,2,9,,0.087719298,2.98,6,2.46,3
2,Quick,F,N,Y,38,76,87,auditory2visual,rightanswer,574,target,visual,v_de,Ja,Vochtige,Mist,0.690076,3.302,4.12,0.335716777,,0.245901639,1.77,1,8,,0.425531915,3.16,4,2.465,15
2,Quick,F,N,Y,8,16,88,auditory2visual,wronganswer,602,target,visual,v_de,Ja,Soepele,Substituut,0.99406,2.75,2.58,0.340263692,,0.327586207,1.56,3,7,,0.352941176,0.6,10,1.08,0
2,Quick,F,N,Y,34,68,89,auditory2visual,rightanswer,556,target,visual,v_de,Nee,Vlezige,Huur,0.947536,3.086,2.965,0.342320262,,0.361111111,1.04,0,7,,0.323529412,2.95,4,1.995,9
2,Quick,F,N,Y,25,50,90,auditory2visual,rightanswer,634,target,visual,v_de,Nee,Lenige,Belasting,0.991066,3.5,2.735,0.347826087,,0.5,0.85,3,6,,0.195652174,2.56,9,1.705,0
2,Quick,F,N,Y,76,152,91,auditory2visual,rightanswer,637,target,visual,v_de,Nee,Vage,Plug,0.958488,3.05,3.1,0.348148148,,0.296296296,2.18,14,4,,0.4,1.56,4,1.87,3
2,Quick,F,N,Y,71,142,92,auditory2visual,rightanswer,498,target,visual,v_het,Ja,Schattig,Moment,0.785329,3.064,1.9,0.367049259,,0.490196078,2.96,2,8,,0.243902439,3.7,6,3.33,0
2,Quick,F,N,Y,16,32,93,auditory2visual,rightanswer,1174,target,visual,v_de,Ja,Miniatuur,Beurs,0.955464,3.1,3.37,0.367857143,,0.485714286,1.38,0,9,,0.25,2.61,5,1.995,1
2,Quick,F,N,Y,24,48,94,auditory2visual,rightanswer,1382,target,visual,v_het,Ja,Modderig,Sterven,0.856102,3.6,3.47,0.372710623,,0.435897436,1.42,1,8,,0.30952381,3.53,7,2.475,5
2,Quick,F,N,Y,60,120,95,auditory2visual,wronganswer,382,target,visual,v_het,Ja,Rauw,Sterven,0.814663,3.1,3.535,0.385531136,,0.461538462,2.24,11,4,,0.30952381,3.53,7,2.885,5
2,Quick,F,N,Y,95,190,96,auditory2visual,rightanswer,770,target,visual,v_de,Ja,Verouderde,Pels,1.08048,3.188,3.7,0.406759907,,0.454545455,1.18,0,10,,0.358974359,1.26,4,1.22,9
2,Quick,F,N,Y,75,150,97,auditory2visual,rightanswer,406,target,visual,v_de,Ja,Heldere,Situatie,0.765895,4,3.2,0.411304348,,0.54,2.33,7,7,,0.282608696,3.33,8,2.83,1
2,Quick,F,N,Y,11,22,98,auditory2visual,rightanswer,1388,target,visual,v_het,Nee,Behaard,Beheer,1.04916,2.825,3.2,0.420930233,,0.441860465,1.45,6,7,,0.4,1.95,6,1.7,5
2,Quick,F,N,Y,70,140,99,auditory2visual,rightanswer,546,target,visual,v_de,Nee,Gloeiende,Prijs,0.941964,3.775,3.24,0.425925926,,0.5,1.68,4,9,,0.351851852,3.38,5,2.53,3
2,Quick,F,N,Y,6,12,100,auditory2visual,rightanswer,610,target,visual,v_de,Ja,Wazige,Verhulling,,3.367,3.47,0.47826087,,0.652173913,1.51,2,6,,0.304347826,0.78,10,1.145,1
2,Quick,F,N,Y,100,200,101,auditory2visual,rightanswer,1078,target,visual,v_het,Nee,Oranje,Concept,0.99857,3.513,2.965,0.498317915,,0.655172414,2.45,12,6,,0.341463415,2.34,7,2.395,1
2,Quick,F,N,Y,83,166,102,auditory2visual,rightanswer,1094,target,visual,v_de,Nee,Groene,Mist,0.770451,4.057,4.365,0.503088538,,0.580645161,2.94,7,6,,0.425531915,3.16,4,3.05,15
2,Quick,F,N,Y,94,188,103,auditory2visual,wronganswer,706,target,visual,v_het,Ja,Luchtig,Oosten,1.00194,2.762,2.87,0.510317461,,0.377777778,1.73,1,7,,0.642857143,2.71,6,2.22,5
2,Quick,F,N,Y,45,90,104,auditory2visual,rightanswer,511,target,visual,v_de,Nee,Rode,Huur,0.987542,3.661,3.565,0.531329924,,0.739130435,3.19,1,4,,0.323529412,2.95,4,3.07,9
2,Quick,F,N,Y,90,180,105,auditory2visual,rightanswer,661,target,visual,v_de,Nee,Lage,Magie,0.96932,3.386,2.335,0.558045977,,0.633333333,2.61,0,4,,0.482758621,2.75,5,2.68,1
2,Quick,F,N,Y,88,176,106,auditory2visual,rightanswer,564,target,visual,v_de,Nee,Fuchsia,Eigenaar,0.94063,3.902,3.735,0.577106519,,0.918918919,1,0,7,,0.235294118,3.02,8,2.01,1
2,Quick,F,N,Y,44,88,107,auditory2visual,rightanswer,764,target,visual,v_de,Ja,Gespikkelde,Pels,0.756941,3.313,4.235,0.602564103,,0.846153846,0.78,0,11,,0.358974359,1.26,4,1.02,9
2,Quick,F,N,Y,72,144,108,auditory2visual,wronganswer,616,target,visual,v_de,Ja,Blonde,Pupil,0.910093,4.05,4.1,0.620110447,,0.679245283,2.55,4,6,,0.56097561,1.66,5,2.105,0
2,Quick,F,N,Y,87,173,109,haptic2visual,rightanswer,316,context,haptic,h_het,Ja,Gebroken,Bot,0.552381,3.135,4,0.150597388,,0.114754098,3.31,3,8,,0.186440678,2.71,3,3.01,29
2,Quick,F,N,Y,91,181,110,haptic2visual,rightanswer,909,context,haptic,h_het,Nee,Drassig,Welzijn,1.02971,3.444,2.73,0.157072369,,0.15625,0.78,0,7,,0.157894737,2.33,7,1.555,0
2,Quick,F,N,Y,63,125,111,haptic2visual,wronganswer,552,context,haptic,h_het,Nee,Gewichtloos,Geweer,0.774708,3.214,3.83,0.177732794,,0.263157895,1.28,0,11,,0.092307692,3.06,6,2.17,3
2,Quick,F,N,Y,86,171,112,haptic2visual,rightanswer,647,context,haptic,h_de,Nee,Schurende,Spier,,3.357,4.67,0.195349848,,0.102564103,0.48,1,9,,0.288135593,2.04,5,1.26,4
2,Quick,F,N,Y,52,103,113,haptic2visual,rightanswer,496,context,haptic,h_het,Nee,Kietelend,Pistool,,4.089,4.87,0.2,,0.307692308,0.6,1,9,,0.092307692,3.23,7,1.915,0
2,Quick,F,N,Y,29,57,114,haptic2visual,wronganswer,602,context,haptic,h_het,Nee,Pijnvol,Heft,,2.65,2.71,0.205128205,,0.076923077,0.48,0,7,,0.333333333,2.03,4,1.255,8
2,Quick,F,N,Y,69,137,115,haptic2visual,rightanswer,622,context,haptic,h_de,Nee,Jeukende,Schok,,2.857,3.33,0.205882353,,0.333333333,0.95,1,8,,0.078431372,2.62,5,1.785,6
2,Quick,F,N,Y,59,117,116,haptic2visual,rightanswer,572,context,haptic,h_de,Nee,Kleverige,Sterkte,0.820183,3.5,2.565,0.215163321,,0.323943662,1.32,1,9,,0.106382979,2.48,7,1.9,2
2,Quick,F,N,Y,85,169,117,haptic2visual,rightanswer,793,context,haptic,h_de,Ja,Slijmerige,Vloeistof,0.650393,4,3.735,0.222513743,,0.289855072,1.75,1,10,,0.155172414,2.21,9,1.98,0
2,Quick,F,N,Y,106,211,118,haptic2visual,rightanswer,494,context,haptic,h_het,Nee,Doorweekt,Welzijn,0.995511,3.59,2.565,0.227756893,,0.297619048,1.86,0,9,,0.157894737,2.33,7,2.095,0
2,Quick,F,N,Y,14,27,119,haptic2visual,rightanswer,613,context,haptic,h_het,Ja,Ruw,Contact,0.850669,3.357,3.135,0.228896104,,0.321428571,2.49,11,3,,0.136363636,3.37,7,2.93,2
2,Quick,F,N,Y,67,133,120,haptic2visual,rightanswer,657,context,haptic,h_het,Ja,Hard,Heft,0.890188,2.938,3.055,0.238095238,,0.142857143,3.6,12,4,,0.333333333,2.03,4,2.815,8
2,Quick,F,N,Y,108,215,121,haptic2visual,wronganswer,733,context,haptic,h_het,Ja,Mals,Contact,1.20917,3.982,3.1,0.242094862,,0.347826087,1.64,13,4,,0.136363636,3.37,7,2.505,2
2,Quick,F,N,Y,81,161,122,haptic2visual,rightanswer,484,context,haptic,h_het,Ja,Broos,Bot,0.873392,3.482,3.87,0.243220339,,0.3,1.26,6,5,,0.186440678,2.71,3,1.985,29
2,Quick,F,N,Y,17,33,123,haptic2visual,rightanswer,487,context,haptic,h_het,Ja,Heet,Pistool,0.773426,3.46,2.8,0.246153846,,0.4,3.74,18,4,,0.092307692,3.23,7,3.485,0
2,Quick,F,N,Y,62,123,124,haptic2visual,rightanswer,532,context,haptic,h_het,Nee,Zijdeachtig,Zeer,0.880074,3.911,1.6,0.255668399,,0.356164384,0.7,0,12,,0.155172414,3.5,4,2.1,19
2,Quick,F,N,Y,10,19,125,haptic2visual,rightanswer,1074,context,haptic,h_het,Nee,Pulserend,Heft,,2.393,2.71,0.256410256,,0.179487179,0.48,0,9,,0.333333333,2.03,4,1.255,8
2,Quick,F,N,Y,28,55,126,haptic2visual,rightanswer,878,context,haptic,h_het,Ja,Bevriezend,Contact,,3.257,2.4,0.257836991,,0.379310345,0.3,1,10,,0.136363636,3.37,7,1.835,2
2,Quick,F,N,Y,58,115,127,haptic2visual,rightanswer,571,context,haptic,h_de,Ja,Zachte,Spier,0.832062,3.982,4.2,0.262488849,,0.236842105,2.59,14,6,,0.288135593,2.04,5,2.315,4
2,Quick,F,N,Y,2,3,128,haptic2visual,rightanswer,474,context,haptic,h_het,Nee,Hitsig,Vilt,0.809776,3.75,3.47,0.2625,,0.125,1.46,1,7,,0.4,1.4,4,1.43,11
2,Quick,F,N,Y,48,95,129,haptic2visual,rightanswer,775,context,haptic,h_de,Nee,Plakkende,Spier,,3.657,4.67,0.263115416,,0.238095238,0.48,2,9,,0.288135593,2.04,5,1.26,4
2,Quick,F,N,Y,12,23,130,haptic2visual,wronganswer,635,context,haptic,h_de,Ja,Geneeskrachtige,Rots,0.920404,2.557,4.73,0.263673891,,0.176470588,1,0,15,,0.350877193,2.62,4,1.81,8
2,Quick,F,N,Y,107,213,131,haptic2visual,wronganswer,1199,context,haptic,h_de,Nee,Taaie,Vloeistof,0.864188,3.875,3.835,0.283606151,,0.301587302,2.19,10,5,,0.265625,2.21,9,2.2,0
2,Quick,F,N,Y,51,101,132,haptic2visual,wronganswer,731,context,haptic,h_de,Nee,Stekelige,Deken,0.795281,3.786,4.465,0.284749035,,0.285714286,0.9,0,9,,0.283783784,2.6,5,1.75,18
2,Quick,F,N,Y,93,185,133,haptic2visual,rightanswer,576,context,haptic,h_het,Nee,Borstelig,Heft,0.898736,3.25,3.155,0.338095238,,0.342857143,0.48,0,9,,0.333333333,2.03,4,1.255,8
2,Quick,F,N,Y,30,59,134,haptic2visual,rightanswer,415,context,haptic,h_de,Ja,Korrelige,Rots,0.87875,3.357,4.43,0.34785239,,0.344827586,0.3,0,9,,0.350877193,2.62,4,1.46,8
2,Quick,F,N,Y,18,35,135,haptic2visual,rightanswer,1159,context,haptic,h_de,Nee,Zere,Rots,0.845866,4.107,3.165,0.354010025,,0.357142857,1.86,19,4,,0.350877193,2.62,4,2.24,8
2,Quick,F,N,Y,42,83,136,haptic2visual,wronganswer,910,context,haptic,h_de,Nee,Klamme,Geest,0.834267,2.567,2.57,0.355983773,,0.470588235,1.4,10,6,,0.24137931,3.28,5,2.34,9
2,Quick,F,N,Y,7,13,137,haptic2visual,rightanswer,508,context,haptic,h_de,Ja,Glibberige,Rots,0.709194,4.107,4.13,0.356598017,,0.362318841,1.53,1,10,,0.350877193,2.62,4,2.075,8
2,Quick,F,N,Y,79,157,138,haptic2visual,wronganswer,739,context,haptic,h_het,Nee,Glad,Vilt,0.83905,4.375,4.305,0.362650603,,0.325301205,2.17,2,6,,0.4,1.4,4,1.785,11
2,Quick,F,N,Y,21,41,139,haptic2visual,wronganswer,1315,context,haptic,h_het,Ja,Donzig,Zaad,0.672252,3.261,4.065,0.384415585,,0.25974026,1.3,13,6,,0.509090909,2.33,4,1.815,8
2,Quick,F,N,Y,32,63,140,haptic2visual,rightanswer,544,context,haptic,h_de,Ja,Warme,Massage,0.752902,4.306,3.835,0.388146168,,0.393939394,2.87,9,5,,0.382352941,2.31,7,2.59,3
2,Quick,F,N,Y,96,191,141,haptic2visual,rightanswer,796,context,haptic,h_het,Ja,Koel,Heft,0.866279,2.75,3.055,0.395833333,,0.458333333,2.52,17,4,,0.333333333,2.03,4,2.275,8
2,Quick,F,N,Y,92,183,142,haptic2visual,wronganswer,439,context,haptic,h_het,Ja,Slap,Vilt,0.723963,3.8,3.905,0.408333334,,0.416666667,2.36,12,6,,0.4,1.4,4,1.88,11
2,Quick,F,N,Y,84,167,143,haptic2visual,rightanswer,610,context,haptic,h_de,Ja,Tintelende,Spier,,3.795,4.67,0.415806927,,0.543478261,0.78,1,10,,0.288135593,2.04,5,1.41,4
2,Quick,F,N,Y,89,177,144,haptic2visual,rightanswer,671,context,haptic,h_het,Nee,Koud,Vilt,0.738496,4.1,4.135,0.436111111,,0.472222222,2.84,8,5,,0.4,1.4,4,2.12,11
2,Quick,F,N,Y,77,153,145,visual2visual,rightanswer,606,context,visual,v_het,Nee,Breekbaar,Loon,0.920184,2.636,3.1,0.160427808,,0.161764706,1.9,0,9,,0.159090909,2.8,4,2.35,13
2,Quick,F,N,Y,26,51,146,visual2visual,rightanswer,814,context,visual,v_de,Nee,Weerkaatsende,Levering,,2.933,3.2,0.184491979,,0.323529412,0.3,0,13,,0.045454546,2.19,8,1.245,1
2,Quick,F,N,Y,41,81,147,visual2visual,rightanswer,713,context,visual,v_het,Nee,Druk,Loon,0.895827,2.848,3.035,0.188636364,,0.218181818,3.65,7,4,,0.159090909,2.8,4,3.225,13
2,Quick,F,N,Y,73,145,148,visual2visual,rightanswer,684,context,visual,v_het,Ja,Wild,Ideaal,0.864252,3.114,2.33,0.209756098,,0.219512195,3.82,6,5,,0.2,2.44,6,3.13,0
2,Quick,F,N,Y,1,1,149,visual2visual,rightanswer,532,context,visual,v_de,Nee,Vuile,Prins,0.938472,2.929,3.7,0.224053296,,0.274193548,3.25,10,5,,0.173913044,2.78,5,3.015,2
2,Quick,F,N,Y,5,9,150,visual2visual,rightanswer,970,context,visual,v_het,Nee,Weinig,Fortuin,0.816837,2.214,1.965,0.229166667,,0.208333333,3.49,3,6,,0.25,2.69,7,3.09,0
2,Quick,F,N,Y,50,99,151,visual2visual,rightanswer,1006,context,visual,v_het,Ja,Rommelend,Moment,,2.723,1.33,0.231042129,,0.218181818,0.6,12,9,,0.243902439,3.7,6,2.15,0
2,Quick,F,N,Y,9,17,152,visual2visual,rightanswer,750,context,visual,v_de,Ja,Zanderige,Race,0.956875,3.014,4.17,0.235987792,,0.132352941,0.7,0,9,,0.339622642,2.5,4,1.6,9
2,Quick,F,N,Y,64,127,153,visual2visual,wronganswer,892,context,visual,v_het,Ja,Bloemrijk,Bezit,1.06813,3.714,2.715,0.249180328,,0.4,0.7,0,9,,0.098360656,3.16,5,1.93,4
2,Quick,F,N,Y,49,97,154,visual2visual,rightanswer,721,context,visual,v_het,Nee,Gewelfd,Moment,0.876797,2.702,2.4,0.250522648,,0.257142857,0.3,1,7,,0.243902439,3.7,6,2,0
2,Quick,F,N,Y,57,113,155,visual2visual,wronganswer,482,context,visual,v_de,Ja,Mottige,Verhulling,,2.867,2.07,0.255639098,,0.142857143,0.6,1,7,,0.368421053,0.78,10,0.69,1
2,Quick,F,N,Y,82,163,156,visual2visual,wronganswer,481,context,visual,v_de,Ja,Onmetelijke,Levering,1.02835,2.958,2.335,0.260822511,,0.476190476,1.26,0,11,,0.045454546,2.19,8,1.725,1
2,Quick,F,N,Y,65,129,157,visual2visual,rightanswer,605,context,visual,v_het,Ja,Vreemd,Aspect,0.886507,2.438,1.57,0.270186336,,0.15942029,3.51,2,6,,0.380952381,2.04,6,2.775,0
2,Quick,F,N,Y,55,109,158,visual2visual,wronganswer,644,context,visual,v_het,Ja,Klonterig,Type,0.708814,2.794,2.63,0.271794872,,0.276923077,0.78,0,9,,0.266666667,3.08,4,1.93,5
2,Quick,F,N,Y,56,111,159,visual2visual,rightanswer,532,context,visual,v_het,Ja,Groot,Onderscheid,0.910296,3.438,2.5,0.283068783,,0.380952381,3.7,6,5,,0.185185185,2.1,11,2.9,1
2,Quick,F,N,Y,46,91,160,visual2visual,rightanswer,600,context,visual,v_de,Ja,Zwarte,Kip,0.88176,3.73,4.57,0.284567727,,0.509433962,3.33,4,6,,0.059701492,2.96,3,3.145,18
2,Quick,F,N,Y,19,37,161,visual2visual,rightanswer,1269,context,visual,v_de,Nee,Dode,Levering,0.939932,2.556,3.265,0.287433156,,0.529411765,3.24,19,4,,0.045454546,2.19,8,2.715,1
2,Quick,F,N,Y,40,79,162,visual2visual,rightanswer,552,context,visual,v_het,Nee,Rot,Mandaat,1.07219,2.396,2.965,0.294117647,,0.470588235,3.33,24,3,,0.117647059,1.49,7,2.41,0
2,Quick,F,N,Y,13,25,163,visual2visual,rightanswer,1311,context,visual,v_de,Nee,Getande,Boete,0.998269,2.946,3.1,0.29920635,,0.288888889,0.7,1,7,,0.30952381,2.47,5,1.585,8
2,Quick,F,N,Y,99,197,164,visual2visual,wronganswer,703,context,visual,v_het,Nee,Nevelig,Mandaat,0.885476,2.183,2.7,0.30020284,,0.482758621,0.3,0,7,,0.117647059,1.49,7,0.895,0
2,Quick,F,N,Y,105,209,165,visual2visual,rightanswer,584,context,visual,v_de,Nee,Papperige,Wacht,0.717868,2.381,3.235,0.307843137,,0.215686274,0.3,0,9,,0.4,3.87,5,2.085,10
2,Quick,F,N,Y,4,7,166,visual2visual,rightanswer,582,context,visual,v_de,Ja,Stomme,Plug,0.769553,2.85,3.065,0.325,,0.25,3.43,10,6,,0.4,1.56,4,2.495,3
2,Quick,F,N,Y,53,105,167,visual2visual,wronganswer,983,context,visual,v_de,Ja,Olieachtige,Aantekening,0.87788,3.343,3.53,0.345486111,,0.46875,0.6,0,11,,0.222222222,1.76,11,1.18,0
2,Quick,F,N,Y,66,131,168,visual2visual,rightanswer,420,context,visual,v_de,Nee,Gevorkte,Race,0.945167,4.048,4.47,0.353144655,,0.366666667,0.6,0,8,,0.339622642,2.5,4,1.55,9
2,Quick,F,N,Y,74,147,169,visual2visual,wronganswer,649,context,visual,v_het,Nee,Schitterend,Sterven,0.854525,3.444,2.735,0.361658457,,0.413793104,2.99,2,11,,0.30952381,3.53,7,3.26,5
2,Quick,F,N,Y,3,5,170,visual2visual,rightanswer,651,context,visual,v_de,Nee,Flikkerende,Socialist,,3.025,1.93,0.365418119,,0.535714286,1.18,1,11,,0.195121951,1.46,9,1.32,0
2,Quick,F,N,Y,104,207,171,visual2visual,rightanswer,1220,context,visual,v_het,Ja,Vlak,Dek,0.820377,3.738,3.7,0.373104146,,0.441860465,3.21,9,4,,0.304347826,2.8,3,3.005,22
2,Quick,F,N,Y,98,195,172,visual2visual,wronganswer,564,context,visual,v_de,Nee,Langgerekte,Verbeelding,0.862372,3.821,2.3,0.37340302,,0.380952381,0.48,2,11,,0.365853659,2.49,11,1.485,0
2,Quick,F,N,Y,68,135,173,visual2visual,wronganswer,560,context,visual,v_het,Nee,Licht,Fortuin,0.945551,3.173,3.265,0.38125,,0.5125,3.43,10,5,,0.25,2.69,7,3.06,0
2,Quick,F,N,Y,78,155,174,visual2visual,wronganswer,509,context,visual,v_de,Ja,Ruige,Pupil,0.89657,3.813,3.265,0.391598916,,0.222222222,2.09,5,5,,0.56097561,1.66,5,1.875,0
2,Quick,F,N,Y,27,53,175,visual2visual,wronganswer,1089,context,visual,v_de,Nee,Kleine,Reus,0.710016,3.679,3.5,0.404761905,,0.476190476,3.67,4,6,,0.333333333,2.29,4,2.98,7
2,Quick,F,N,Y,35,69,176,visual2visual,rightanswer,989,context,visual,v_de,Ja,Korte,Expansie,0.974158,3.625,2.565,0.413461539,,0.576923077,3.05,14,5,,0.25,1.04,8,2.045,0
2,Quick,F,N,Y,103,205,177,visual2visual,rightanswer,709,context,visual,v_de,Ja,Bolvormige,Formatie,0.83644,3.413,2.9,0.432432432,,0.486486486,0.48,0,10,,0.378378378,2.04,8,1.26,0
2,Quick,F,N,Y,36,71,178,visual2visual,rightanswer,965,context,visual,v_het,Ja,Donker,Moment,0.684565,2.952,2.665,0.439024391,,0.634146342,3.28,1,6,,0.243902439,3.7,6,3.49,0
2,Quick,F,N,Y,101,201,179,visual2visual,wronganswer,893,context,visual,v_het,Ja,Glitterend,Effect,,3.671,2.07,0.464892831,,0.515151515,0.48,0,10,,0.414634146,2.77,6,1.625,0
2,Quick,F,N,Y,20,39,180,visual2visual,wronganswer,836,context,visual,v_de,Nee,Doorschijnende,Verhulling,,3.792,3.5,0.501011123,,0.697674419,0.48,0,14,,0.304347826,0.78,10,0.63,1
2,Quick,F,N,Y,102,203,181,auditory2visual,wronganswer,863,context,auditory,a_de,Ja,Zeurende,Wrok,,2.548,1.8,0.179861111,,0.270833333,1.38,2,8,,0.088888889,2.2,4,1.79,4
2,Quick,F,N,Y,72,143,182,auditory2visual,rightanswer,693,context,auditory,a_de,Ja,Jammerende,Poëzie,,2.722,2.93,0.182138481,,0.254901961,1.2,1,10,,0.109375,2.42,6,1.81,0
2,Quick,F,N,Y,38,75,183,auditory2visual,rightanswer,879,context,auditory,a_de,Ja,Ritmische,Neiging,0.86689,2.522,2.535,0.19375,,0.2,1,0,9,,0.1875,2.16,7,1.58,0
2,Quick,F,N,Y,8,15,184,auditory2visual,rightanswer,880,context,auditory,a_het,Nee,Fluitend,Verleden,,2.778,1.33,0.223112536,,0.298076923,1.04,2,8,,0.148148148,3.3,8,2.17,7
2,Quick,F,N,Y,75,149,185,auditory2visual,rightanswer,807,context,auditory,a_de,Nee,Krijsende,Dichter,,2.667,2.87,0.22718254,,0.232142857,1.32,2,9,,0.222222222,2.96,7,2.14,6
2,Quick,F,N,Y,45,89,186,auditory2visual,rightanswer,1046,context,auditory,a_de,Nee,Stormachtige,Eis,0.9187,3.656,2.6,0.232600733,,0.131868132,1.45,1,12,,0.333333333,2.64,3,2.045,13
2,Quick,F,N,Y,16,31,187,auditory2visual,rightanswer,702,context,auditory,a_het,Nee,Knarsend,Gerucht,,4.536,2,0.267857143,,0.25,0.7,1,9,,0.285714286,2.61,7,1.655,4
2,Quick,F,N,Y,90,179,188,auditory2visual,wronganswer,1247,context,auditory,a_de,Nee,Giechelende,Overeenkomst,,4.042,1.93,0.270701755,,0.394736842,0.78,1,11,,0.146666667,2.73,12,1.755,1
2,Quick,F,N,Y,54,107,189,auditory2visual,wronganswer,684,context,auditory,a_het,Ja,Fluisterend,Doel,,3.056,2.13,0.300684485,,0.389830508,1.3,2,11,,0.211538462,3.3,4,2.3,16
2,Quick,F,N,Y,34,67,190,auditory2visual,rightanswer,767,context,auditory,a_de,Nee,Gierende,Seconde,,3.411,2.87,0.306603774,,0.5,1.08,2,8,,0.113207547,2.85,7,1.965,1
2,Quick,F,N,Y,6,11,191,auditory2visual,wronganswer,783,context,auditory,a_het,Nee,Schreeuwend,Compliment,0.977691,3.444,3.035,0.308147397,,0.224137931,2.02,2,11,,0.392156863,2.59,10,2.305,0
2,Quick,F,N,Y,88,175,192,auditory2visual,wronganswer,806,context,auditory,a_de,Ja,Knallende,Herinnering,,3.286,1.87,0.309210527,,0.368421053,1.38,2,9,,0.25,2.8,11,2.09,0
2,Quick,F,N,Y,100,199,193,auditory2visual,wronganswer,537,context,auditory,a_de,Ja,Sissende,Laster,,2.95,2.33,0.309615385,,0.369230769,1.04,0,8,,0.25,1.84,6,1.44,4
2,Quick,F,N,Y,94,187,194,auditory2visual,rightanswer,760,context,auditory,a_het,Nee,Gillend,Feit,,3.389,1.67,0.313265306,,0.326530612,1.87,2,7,,0.3,3.15,4,2.51,3
2,Quick,F,N,Y,37,73,195,auditory2visual,rightanswer,641,context,auditory,a_de,Ja,Morrende,Leiding,,3.571,2.67,0.326794258,,0.526315789,0.3,0,8,,0.127272727,3.09,7,1.695,0
2,Quick,F,N,Y,47,93,196,auditory2visual,wronganswer,804,context,auditory,a_het,Nee,Schor,Enthousiasme,0.859341,4.578,2.83,0.337784091,,0.59375,1.11,7,5,,0.081818182,2.25,12,1.68,1
2,Quick,F,N,Y,70,139,197,auditory2visual,wronganswer,940,context,auditory,a_het,Nee,Lachend,Wantrouwen,0.921945,3.829,2.9,0.34375,,0.5,2.03,16,7,,0.1875,1.98,10,2.005,1
2,Quick,F,N,Y,33,65,198,auditory2visual,wronganswer,640,context,auditory,a_de,Ja,Donderende,Vergadering,,3.381,3.27,0.373122834,,0.358490566,0.85,4,10,,0.387755102,2.93,11,1.89,0
2,Quick,F,N,Y,71,141,199,auditory2visual,rightanswer,558,context,auditory,a_de,Nee,Blaffende,Felicitatie,,4.295,2.67,0.374603175,,0.471428571,1.34,2,9,,0.277777778,1.2,11,1.27,1
2,Quick,F,N,Y,31,61,200,auditory2visual,rightanswer,1009,context,auditory,a_het,Ja,Stil,Voornemen,0.876852,3.686,2.465,0.37515763,,0.442622951,3.58,8,4,,0.307692308,1.61,9,2.595,3
2,Quick,F,N,Y,23,45,201,auditory2visual,rightanswer,1140,context,auditory,a_het,Ja,Luidruchtig,Noodgeval,0.814128,4.014,2.53,0.385799404,,0.526315789,2.05,1,11,,0.245283019,2.74,9,2.395,0
2,Quick,F,N,Y,11,21,202,auditory2visual,rightanswer,992,context,auditory,a_de,Nee,Rinkelende,Verklaring,,3.533,1.8,0.404634581,,0.515151515,0.9,1,10,,0.294117647,3.13,10,2.015,0
2,Quick,F,N,Y,83,165,203,auditory2visual,rightanswer,375,context,auditory,a_het,Ja,Luid,Welkom,0.868225,3.971,2.765,0.405092593,,0.625,2.54,11,4,,0.185185185,3.57,6,3.055,2
2,Quick,F,N,Y,44,87,204,auditory2visual,rightanswer,908,context,auditory,a_de,Nee,Grommende,Economie,,3.771,1.53,0.412207358,,0.47826087,0.95,1,9,,0.346153846,2.44,8,1.695,0
2,Quick,F,N,Y,97,193,205,auditory2visual,wronganswer,760,context,auditory,a_het,Ja,Gedempt,Verleden,0.931374,3.378,1.8,0.413359789,,0.678571429,1.18,1,7,,0.148148148,3.3,8,2.24,7
2,Quick,F,N,Y,80,159,206,auditory2visual,wronganswer,615,context,auditory,a_het,Nee,Kreunend,Gelach,,4.882,4,0.416666667,,0.5,0.78,1,8,,0.333333333,1.95,6,1.365,0
2,Quick,F,N,Y,24,47,207,auditory2visual,wronganswer,883,context,auditory,a_de,Ja,Piepende,Aankondiging,,3.83,2.2,0.451495727,,0.422222222,1.08,1,8,,0.480769231,2.06,12,1.57,0
2,Quick,F,N,Y,95,189,208,auditory2visual,rightanswer,524,context,auditory,a_de,Nee,Krakende,Raad,,4.111,2.33,0.460685484,,0.483870968,1.26,1,8,,0.4375,3.35,4,2.305,14
2,Quick,F,N,Y,15,29,209,auditory2visual,rightanswer,932,context,auditory,a_het,Nee,Oorverdovend,Plan,0.973202,3.444,2.965,0.46474359,,0.673076923,1.34,0,12,,0.256410256,3.47,4,2.405,7
2,Quick,F,N,Y,43,85,210,auditory2visual,rightanswer,560,context,auditory,a_het,Ja,Geluidloos,Antwoord,0.810143,4,2.835,0.470746108,,0.52173913,1.11,0,10,,0.419753086,3.53,8,2.32,1
2,Quick,F,N,Y,76,151,211,auditory2visual,rightanswer,833,context,auditory,a_de,Nee,Melodieuze,Kennis,0.959205,3.811,2,0.494623656,,0.666666667,0.85,0,10,,0.322580645,3.22,6,2.035,1
2,Quick,F,N,Y,22,43,212,auditory2visual,wronganswer,637,context,auditory,a_het,Ja,Zoemend,Advies,,4.59,1.87,0.506112145,,0.603773585,0.85,0,7,,0.408450704,3.04,6,1.945,0
2,Quick,F,N,Y,25,49,213,auditory2visual,wronganswer,957,context,auditory,a_het,Ja,Hoorbaar,Plan,0.964573,3.444,2.9,0.513621795,,0.770833333,1.15,0,8,,0.256410256,3.47,4,2.31,7
2,Quick,F,N,Y,60,119,214,auditory2visual,rightanswer,451,context,auditory,a_het,Ja,Schel,Geluid,0.618908,3.619,3.27,0.520108696,,0.475,1,10,5,,0.565217391,3.14,6,2.07,4
2,Quick,F,N,Y,39,77,215,auditory2visual,rightanswer,897,context,auditory,a_het,Ja,Hese,Verhoor,0.93572,3.159,4.335,0.569157393,,0.705882353,1.18,18,4,,0.432432433,2.43,7,1.805,4
2,Quick,F,N,Y,61,121,216,auditory2visual,rightanswer,555,context,auditory,a_het,Nee,Lauw,Volume,0.871071,2.563,3.265,0.57184529,,0.662921348,1.54,10,4,,0.480769231,1.99,6,1.765,0
3,Quick,F,N,Y,100,200,1,haptic2visual,rightanswer,585,target,visual,v_het,Nee,Kokend,Mandaat,0.901574,2.306,1.93,0.131191951,,0.144736842,1.77,4,6,,0.117647059,1.49,7,1.63,0
3,Quick,F,N,Y,24,48,2,haptic2visual,wronganswer,514,target,visual,v_de,Ja,Zwoele,Levering,0.973728,2.733,2.865,0.147727273,,0.25,1.48,2,6,,0.045454546,2.19,8,1.835,1
3,Quick,F,N,Y,23,46,3,haptic2visual,rightanswer,680,target,visual,v_de,Nee,Barstende,Veiligheid,,2.889,1.93,0.212937063,,0.107692308,1.57,2,9,,0.318181818,3.13,10,2.35,3
3,Quick,F,N,Y,101,202,4,haptic2visual,wronganswer,605,target,visual,v_de,Ja,Beschimmelde,Levering,0.87933,3.333,3.335,0.272727273,,0.5,1.2,0,12,,0.045454546,2.19,8,1.695,1
3,Quick,F,N,Y,51,102,5,haptic2visual,wronganswer,859,target,visual,v_de,Ja,Stevige,Veiligheid,0.928228,3.188,2.5,0.274475525,,0.230769231,2.38,1,7,,0.318181818,3.13,10,2.755,3
3,Quick,F,N,Y,66,132,6,haptic2visual,rightanswer,824,target,visual,v_de,Nee,Grove,Sierlijkheid,0.931037,3.446,2.07,0.274487836,,0.253521127,2.16,6,5,,0.295454545,0.6,12,1.38,0
3,Quick,F,N,Y,108,216,7,haptic2visual,wronganswer,370,target,visual,v_het,Ja,Schriel,Loon,0.913305,3.369,2.7,0.277219873,,0.395348837,1.04,0,7,,0.159090909,2.8,4,1.92,13
3,Quick,F,N,Y,81,162,8,haptic2visual,wronganswer,466,target,visual,v_de,Ja,Plantaardige,Aantekening,0.819882,3.143,3.165,0.288194445,,0.354166667,1.26,0,12,,0.222222222,1.76,11,1.51,0
3,Quick,F,N,Y,10,20,9,haptic2visual,rightanswer,1020,target,visual,v_de,Ja,Saaie,President,0.934654,2.516,2.53,0.292832168,,0.153846154,2.57,7,5,,0.431818182,3.07,9,2.82,0
3,Quick,F,N,Y,64,128,10,haptic2visual,rightanswer,632,target,visual,v_de,Nee,Knappe,Ziekte,0.889361,3.4,2.83,0.302480339,,0.517241379,3.01,11,6,,0.087719298,2.98,6,2.995,3
3,Quick,F,N,Y,107,214,11,haptic2visual,rightanswer,807,target,visual,v_de,Ja,Droge,Weerstand,1.0069,3.671,3.065,0.309200604,,0.461538462,2.5,4,5,,0.156862745,2.36,9,2.43,0
3,Quick,F,N,Y,82,164,12,haptic2visual,wronganswer,472,target,visual,v_de,Ja,Gesmolten,Weerstand,0.945311,3.671,2.33,0.31372549,,0.470588235,2.18,0,9,,0.156862745,2.36,9,2.27,0
3,Quick,F,N,Y,20,40,13,haptic2visual,wronganswer,799,target,visual,v_de,Ja,Absorberende,Verbeelding,,2.683,1.6,0.317073171,,0.268292683,0.9,1,12,,0.365853659,2.49,11,1.695,0
3,Quick,F,N,Y,2,4,14,haptic2visual,wronganswer,932,target,visual,v_de,Nee,Diepe,Plug,0.914433,3.5,3.6,0.326666667,,0.253333333,2.69,10,5,,0.4,1.56,4,2.125,3
3,Quick,F,N,Y,46,92,15,haptic2visual,rightanswer,370,target,visual,v_de,Nee,Betoverende,Plug,0.938647,2.85,3.2,0.330434783,,0.260869565,1.72,2,11,,0.4,1.56,4,1.64,3
3,Quick,F,N,Y,75,150,16,haptic2visual,wronganswer,841,target,visual,v_de,Ja,Lege,Aantekening,0.816074,3.31,3.5,0.331111111,,0.44,2.91,13,4,,0.222222222,1.76,11,2.335,0
3,Quick,F,N,Y,103,206,17,haptic2visual,wronganswer,596,target,visual,v_de,Ja,Ondiepe,Kwestie,0.879064,2.938,2.365,0.332810867,,0.424242424,1.54,1,7,,0.24137931,3.03,7,2.285,1
3,Quick,F,N,Y,83,166,18,haptic2visual,rightanswer,572,target,visual,v_het,Ja,Somber,Type,0.926306,2.516,2.03,0.333333334,,0.4,2.43,2,6,,0.266666667,3.08,4,2.755,5
3,Quick,F,N,Y,28,56,19,haptic2visual,wronganswer,631,target,visual,v_de,Ja,Jankende,Proportie,,3.013,1.8,0.346082779,,0.207317073,1.36,2,8,,0.484848485,1.32,9,1.34,1
3,Quick,F,N,Y,62,124,20,haptic2visual,wronganswer,454,target,visual,v_de,Ja,Verkoolde,Plug,0.91221,2.85,4.13,0.362790698,,0.325581395,1.32,1,9,,0.4,1.56,4,1.44,3
3,Quick,F,N,Y,85,170,21,haptic2visual,rightanswer,418,target,visual,v_het,Nee,Amber,Sterven,0.779902,2.857,3.725,0.364439325,,0.419354839,1.97,1,5,,0.30952381,3.53,7,2.75,5
3,Quick,F,N,Y,36,72,22,haptic2visual,wronganswer,734,target,visual,v_de,Ja,Roestige,Hoeveelheid,0.9656,3.964,2.73,0.366666667,,0.433333333,1.65,1,8,,0.3,2.5,11,2.075,0
3,Quick,F,N,Y,79,158,23,haptic2visual,rightanswer,534,target,visual,v_de,Nee,Blauwe,Boerderij,0.983035,3.579,4.365,0.36710444,,0.682926829,3.14,4,6,,0.051282051,2.77,9,2.955,0
3,Quick,F,N,Y,98,196,24,haptic2visual,rightanswer,357,target,visual,v_het,Nee,Onrijp,Dek,1.0097,3.063,3.73,0.367860188,,0.431372549,0.85,0,6,,0.304347826,2.8,3,1.825,22
3,Quick,F,N,Y,61,122,25,haptic2visual,rightanswer,947,target,visual,v_de,Ja,Schone,President,0.920504,3.471,2.73,0.370230079,,0.308641975,2.82,4,6,,0.431818182,3.07,9,2.945,0
3,Quick,F,N,Y,99,198,26,haptic2visual,rightanswer,926,target,visual,v_het,Ja,Spits,Type,0.928955,3.321,2.7,0.375980393,,0.485294118,1.89,3,5,,0.266666667,3.08,4,2.485,5
3,Quick,F,N,Y,76,152,27,haptic2visual,rightanswer,476,target,visual,v_de,Nee,Gebogen,Gelegenheid,0.96045,3.151,2.835,0.383802817,,0.267605634,2.04,8,7,,0.5,2.75,11,2.395,1
3,Quick,F,N,Y,26,52,28,haptic2visual,rightanswer,790,target,visual,v_de,Nee,Groeiende,Wacht,,3.527,3.2,0.415384616,,0.430769231,1.91,3,9,,0.4,3.87,5,2.89,10
3,Quick,F,N,Y,48,96,29,haptic2visual,wronganswer,799,target,visual,v_het,Ja,Tenger,Effect,0.917275,3.671,2.535,0.417843389,,0.421052632,1.3,1,6,,0.414634146,2.77,6,2.035,0
3,Quick,F,N,Y,106,212,30,haptic2visual,rightanswer,681,target,visual,v_de,Nee,Beige,Hoeveelheid,0.950069,3.548,3.265,0.420833334,,0.541666667,1.76,1,5,,0.3,2.5,11,2.13,0
3,Quick,F,N,Y,94,188,31,haptic2visual,rightanswer,587,target,visual,v_de,Nee,Gevlekte,Belasting,0.981789,3.528,3.1,0.438251619,,0.680851064,1.4,3,8,,0.195652174,2.56,9,1.98,0
3,Quick,F,N,Y,9,18,32,haptic2visual,wronganswer,1025,target,visual,v_het,Ja,Briljant,Oosten,1.06043,2.373,2.6,0.446428572,,0.25,2.85,1,8,,0.642857143,2.71,6,2.78,5
3,Quick,F,N,Y,30,60,33,haptic2visual,wronganswer,948,target,visual,v_het,Ja,Elegant,Effect,0.949052,3.238,2.2,0.457317073,,0.5,2.31,1,7,,0.414634146,2.77,6,2.54,0
3,Quick,F,N,Y,31,62,34,haptic2visual,wronganswer,853,target,visual,v_de,Ja,Effen,Deel,0.93126,3.675,3.035,0.503496504,,0.461538462,1.26,4,5,,0.545454545,3.54,4,2.4,13
3,Quick,F,N,Y,50,100,35,haptic2visual,rightanswer,824,target,visual,v_het,Nee,Geblokt,Oosten,1.02688,3.151,3.27,0.528975742,,0.41509434,1.11,1,7,,0.642857143,2.71,6,1.91,5
3,Quick,F,N,Y,11,22,36,haptic2visual,rightanswer,938,target,visual,v_de,Ja,Gouden,Gelegenheid,0.897149,3.529,2.87,0.53125,,0.5625,2.95,7,6,,0.5,2.75,11,2.85,1
3,Quick,F,N,Y,52,104,37,visual2visual,wronganswer,480,target,visual,v_het,Ja,Brak,Bezit,0.901718,3.314,2.71,0.149180328,,0.2,2.9,7,4,,0.098360656,3.16,5,3.03,4
3,Quick,F,N,Y,29,58,38,visual2visual,rightanswer,657,target,visual,v_de,Nee,Elastische,Boerderij,1.00684,3.982,3.8,0.15275967,,0.254237288,1.04,1,10,,0.051282051,2.77,9,1.905,0
3,Quick,F,N,Y,15,30,39,visual2visual,wronganswer,1013,target,visual,v_het,Ja,Hol,Bezit,0.907924,3.414,3.2,0.167601381,,0.236842105,2.56,9,3,,0.098360656,3.16,5,2.86,4
3,Quick,F,N,Y,8,16,40,visual2visual,rightanswer,1006,target,visual,v_de,Ja,Smerige,Boerderij,0.787197,3.691,3.765,0.18005279,,0.308823529,2.94,3,7,,0.051282051,2.77,9,2.855,0
3,Quick,F,N,Y,16,32,41,visual2visual,rightanswer,1149,target,visual,v_de,Nee,Ijzige,Beurs,1.0372,2.5,3.07,0.210714286,,0.171428571,1.57,2,6,,0.25,2.61,5,2.09,1
3,Quick,F,N,Y,18,36,42,visual2visual,wronganswer,842,target,visual,v_het,Ja,Smakeloos,Moment,0.925003,1.986,1.9,0.22195122,,0.2,1.75,0,9,,0.243902439,3.7,6,2.725,0
3,Quick,F,N,Y,92,184,43,visual2visual,rightanswer,451,target,visual,v_het,Nee,Koortsig,Fortuin,1.05603,2.414,2.635,0.25,,0.25,1.42,0,8,,0.25,2.69,7,2.055,0
3,Quick,F,N,Y,22,44,44,visual2visual,rightanswer,820,target,visual,v_de,Ja,Zwakke,Worp,0.819115,3.402,3.17,0.255578094,,0.275862069,2.74,4,6,,0.235294118,2.23,4,2.485,4
3,Quick,F,N,Y,104,208,45,visual2visual,rightanswer,954,target,visual,v_de,Ja,Kille,Aantekening,0.881481,2.443,3.37,0.258169935,,0.294117647,1.91,20,5,,0.222222222,1.76,11,1.835,0
3,Quick,F,N,Y,72,144,46,visual2visual,rightanswer,524,target,visual,v_het,Nee,Solide,Ideaal,0.891126,3.214,1.85,0.269354839,,0.338709677,2,0,6,,0.2,2.44,6,2.22,0
3,Quick,F,N,Y,17,34,47,visual2visual,wronganswer,794,target,visual,v_de,Ja,Bloedige,Worp,0.838693,3.314,3.835,0.295066414,,0.35483871,1.85,2,8,,0.235294118,2.23,4,2.04,4
3,Quick,F,N,Y,97,194,48,visual2visual,wronganswer,447,target,visual,v_de,Ja,Rotsige,Beurs,0.981565,2.6,3.07,0.3046875,,0.359375,0.78,1,7,,0.25,2.61,5,1.695,1
3,Quick,F,N,Y,33,66,49,visual2visual,rightanswer,729,target,visual,v_het,Nee,Mistig,Loon,0.934111,3.286,3.47,0.308116883,,0.457142857,1.7,2,6,,0.159090909,2.8,4,2.25,13
3,Quick,F,N,Y,56,112,50,visual2visual,rightanswer,752,target,visual,v_de,Ja,Losse,Levering,0.933941,3.033,3.2,0.311188812,,0.576923077,2.47,20,5,,0.045454546,2.19,8,2.33,1
3,Quick,F,N,Y,53,106,51,visual2visual,wronganswer,799,target,visual,v_de,Nee,Aardse,Magie,0.839526,2.286,1.97,0.312807882,,0.142857143,2.18,6,6,,0.482758621,2.75,5,2.465,1
3,Quick,F,N,Y,49,98,52,visual2visual,rightanswer,514,target,visual,v_de,Ja,Lelijke,Prins,0.785819,3.741,2.83,0.319715143,,0.465517241,2.84,2,7,,0.173913044,2.78,5,2.81,2
3,Quick,F,N,Y,74,148,53,visual2visual,wronganswer,538,target,visual,v_de,Nee,Enorme,Plug,0.970384,3.25,2.965,0.338888889,,0.277777778,3.16,2,6,,0.4,1.56,4,2.36,3
3,Quick,F,N,Y,65,130,54,visual2visual,rightanswer,437,target,visual,v_de,Nee,Fonkelende,Verhulling,,3.367,3.87,0.339673913,,0.375,1.3,1,10,,0.304347826,0.78,10,1.04,1
3,Quick,F,N,Y,44,88,55,visual2visual,rightanswer,602,target,visual,v_de,Nee,Sterke,Wacht,0.683177,3.027,2.965,0.350793651,,0.301587302,3.08,7,6,,0.4,3.87,5,3.475,10
3,Quick,F,N,Y,89,178,56,visual2visual,rightanswer,459,target,visual,v_het,Ja,Transparant,Bezit,1.05536,3.777,2.735,0.353528154,,0.608695652,1.38,0,11,,0.098360656,3.16,5,2.27,4
3,Quick,F,N,Y,42,84,57,visual2visual,rightanswer,838,target,visual,v_de,Nee,Compacte,Reus,1.01699,2.984,3.435,0.354166667,,0.375,1.43,1,8,,0.333333333,2.29,4,1.86,7
3,Quick,F,N,Y,58,116,58,visual2visual,wronganswer,511,target,visual,v_de,Ja,Bleke,Ziekte,0.818318,3.6,3.63,0.354204477,,0.620689655,1.92,4,5,,0.087719298,2.98,6,2.45,3
3,Quick,F,N,Y,96,192,59,visual2visual,rightanswer,604,target,visual,v_de,Nee,Stompe,Wacht,0.850451,3.214,3.445,0.366666667,,0.333333333,0.85,5,6,,0.4,3.87,5,2.36,10
3,Quick,F,N,Y,32,64,60,visual2visual,wronganswer,893,target,visual,v_het,Ja,Nauw,Effect,1.04643,3.371,2.4,0.37398374,,0.333333333,2.36,8,4,,0.414634146,2.77,6,2.565,0
3,Quick,F,N,Y,45,90,61,visual2visual,rightanswer,611,target,visual,v_de,Nee,Gevouwen,Situatie,,3.571,2.27,0.383951407,,0.485294118,1.51,1,8,,0.282608696,3.33,8,2.42,1
3,Quick,F,N,Y,102,204,62,visual2visual,rightanswer,435,target,visual,v_de,Nee,Pluizige,Boete,0.902354,3.571,3.435,0.385531136,,0.461538462,1.46,0,8,,0.30952381,2.47,5,1.965,8
3,Quick,F,N,Y,5,10,63,visual2visual,rightanswer,947,target,visual,v_het,Nee,Gevormd,Oosten,0.945895,2.762,3.27,0.394009217,,0.14516129,2.29,0,7,,0.642857143,2.71,6,2.5,5
3,Quick,F,N,Y,4,8,64,visual2visual,rightanswer,1270,target,visual,v_de,Nee,Rechthoekige,Sierlijkheid,0.610794,3.884,4,0.417568543,,0.53968254,1,0,12,,0.295454545,0.6,12,0.8,0
3,Quick,F,N,Y,90,180,65,visual2visual,wronganswer,516,target,visual,v_het,Ja,Bruin,Type,0.708907,2.794,2.765,0.442857143,,0.619047619,2.68,3,5,,0.266666667,3.08,4,2.88,5
3,Quick,F,N,Y,7,14,66,visual2visual,rightanswer,918,target,visual,v_het,Nee,Kleurrijk,Fortuin,0.914891,3.214,2.9,0.447916667,,0.645833333,1.76,1,9,,0.25,2.69,7,2.225,0
3,Quick,F,N,Y,86,172,67,visual2visual,rightanswer,490,target,visual,v_de,Nee,Bronzen,Boete,0.985813,2.96,3.3,0.480107527,,0.766666667,1.61,2,7,,0.193548387,2.47,5,2.04,8
3,Quick,F,N,Y,12,24,68,visual2visual,rightanswer,910,target,visual,v_de,Nee,Paarse,Vrijheid,1.01049,3.955,2.8,0.497389654,,0.790697674,2.15,10,6,,0.204081633,3.11,8,2.63,0
3,Quick,F,N,Y,73,146,69,visual2visual,rightanswer,813,target,visual,v_de,Ja,Lichtbruine,Verhulling,,3.967,3.6,0.502173913,,0.7,0.9,0,11,,0.304347826,0.78,10,0.84,1
3,Quick,F,N,Y,34,68,70,visual2visual,wronganswer,1017,target,visual,v_het,Nee,Onbeweeglijk,Gebaar,0.872001,3.722,3.03,0.51532567,,0.444444444,1.23,0,12,,0.586206896,2.48,6,1.855,4
3,Quick,F,N,Y,21,42,71,visual2visual,wronganswer,822,target,visual,v_de,Ja,Hoge,Plug,1.03526,4.05,3.63,0.54375,,0.6875,3.19,21,4,,0.4,1.56,4,2.375,3
3,Quick,F,N,Y,78,156,72,visual2visual,rightanswer,492,target,visual,v_het,Ja,Grotesk,Effect,0.94522,3.571,2.075,0.635888502,,0.857142857,1.34,1,7,,0.414634146,2.77,6,2.055,0
3,Quick,F,N,Y,93,186,73,auditory2visual,rightanswer,466,target,visual,v_de,Nee,Pijnlijke,Levering,0.980362,2.611,3.035,0.046536797,,0.047619048,2.4,1,9,,0.045454546,2.19,8,2.295,1
3,Quick,F,N,Y,47,94,74,auditory2visual,rightanswer,436,target,visual,v_de,Ja,Levende,Kip,0.76092,3.486,3.9,0.079850746,,0.1,2.83,5,7,,0.059701492,2.96,3,2.895,18
3,Quick,F,N,Y,25,50,75,auditory2visual,rightanswer,1049,target,visual,v_de,Nee,Ongelijke,Uitvinding,0.878655,3.571,1.865,0.157786886,,0.25,1.23,0,9,,0.065573771,2.18,10,1.705,0
3,Quick,F,N,Y,88,176,76,auditory2visual,wronganswer,453,target,visual,v_de,Ja,Krullende,Vrijheid,,3.365,1.47,0.213981115,,0.223880597,0.85,1,9,,0.204081633,3.11,8,1.98,0
3,Quick,F,N,Y,40,80,77,auditory2visual,rightanswer,608,target,visual,v_het,Nee,Hobbelig,Loon,1.03941,2.986,3.335,0.237440192,,0.315789474,1.58,0,8,,0.159090909,2.8,4,2.19,13
3,Quick,F,N,Y,67,134,78,auditory2visual,wronganswer,667,target,visual,v_de,Ja,Doffe,Eigenaar,0.958726,3.048,3.065,0.256535948,,0.277777778,1.34,2,5,,0.235294118,3.02,8,2.18,1
3,Quick,F,N,Y,70,140,79,auditory2visual,wronganswer,1064,target,visual,v_de,Nee,Vallende,Verhulling,,3.517,,0.26905703,,0.233766234,1.99,2,8,,0.304347826,0.78,10,1.385,1
3,Quick,F,N,Y,84,168,80,auditory2visual,rightanswer,994,target,visual,v_de,Nee,Pure,Plug,0.995621,2.875,3.23,0.271428572,,0.142857143,2.74,8,4,,0.4,1.56,4,2.15,3
3,Quick,F,N,Y,19,38,81,auditory2visual,rightanswer,856,target,visual,v_het,Nee,Stoffig,Loon,0.881351,3.119,3.47,0.277958153,,0.396825397,1.76,1,7,,0.159090909,2.8,4,2.28,13
3,Quick,F,N,Y,37,74,82,auditory2visual,rightanswer,636,target,visual,v_de,Nee,Golvende,Plug,0.923349,3.875,4.13,0.284415585,,0.168831169,1.3,2,8,,0.4,1.56,4,1.43,3
3,Quick,F,N,Y,6,12,83,auditory2visual,rightanswer,806,target,visual,v_de,Ja,Metalen,Plug,0.86532,3.75,4.1,0.3,,0.2,2.38,1,7,,0.4,1.56,4,1.97,3
3,Quick,F,N,Y,105,210,84,auditory2visual,rightanswer,886,target,visual,v_de,Ja,Vieze,Uitvinding,0.873652,3.671,2.6,0.31219865,,0.558823529,2.89,10,5,,0.065573771,2.18,10,2.535,0
3,Quick,F,N,Y,39,78,85,auditory2visual,rightanswer,693,target,visual,v_de,Nee,Prachtige,Selectie,,3.629,2.065,0.328335374,,0.447368421,3.25,3,9,,0.209302326,2.06,8,2.655,1
3,Quick,F,N,Y,27,54,86,auditory2visual,rightanswer,611,target,visual,v_de,Nee,Glimmende,Ziekte,1.03236,3.7,3.5,0.33418223,,0.580645161,1.94,2,9,,0.087719298,2.98,6,2.46,3
3,Quick,F,N,Y,68,136,87,auditory2visual,rightanswer,611,target,visual,v_de,Ja,Vochtige,Mist,0.690076,3.302,4.12,0.335716777,,0.245901639,1.77,1,8,,0.425531915,3.16,4,2.465,15
3,Quick,F,N,Y,77,154,88,auditory2visual,wronganswer,418,target,visual,v_de,Ja,Soepele,Substituut,0.99406,2.75,2.58,0.340263692,,0.327586207,1.56,3,7,,0.352941176,0.6,10,1.08,0
3,Quick,F,N,Y,3,6,89,auditory2visual,rightanswer,908,target,visual,v_de,Nee,Vlezige,Huur,0.947536,3.086,2.965,0.342320262,,0.361111111,1.04,0,7,,0.323529412,2.95,4,1.995,9
3,Quick,F,N,Y,13,26,90,auditory2visual,rightanswer,1658,target,visual,v_de,Nee,Lenige,Belasting,0.991066,3.5,2.735,0.347826087,,0.5,0.85,3,6,,0.195652174,2.56,9,1.705,0
3,Quick,F,N,Y,91,182,91,auditory2visual,rightanswer,714,target,visual,v_de,Nee,Vage,Plug,0.958488,3.05,3.1,0.348148148,,0.296296296,2.18,14,4,,0.4,1.56,4,1.87,3
3,Quick,F,N,Y,87,174,92,auditory2visual,wronganswer,659,target,visual,v_het,Ja,Schattig,Moment,0.785329,3.064,1.9,0.367049259,,0.490196078,2.96,2,8,,0.243902439,3.7,6,3.33,0
3,Quick,F,N,Y,57,114,93,auditory2visual,wronganswer,699,target,visual,v_de,Ja,Miniatuur,Beurs,0.955464,3.1,3.37,0.367857143,,0.485714286,1.38,0,9,,0.25,2.61,5,1.995,1
3,Quick,F,N,Y,38,76,94,auditory2visual,wronganswer,836,target,visual,v_het,Ja,Modderig,Sterven,0.856102,3.6,3.47,0.372710623,,0.435897436,1.42,1,8,,0.30952381,3.53,7,2.475,5
3,Quick,F,N,Y,71,142,95,auditory2visual,wronganswer,519,target,visual,v_het,Ja,Rauw,Sterven,0.814663,3.1,3.535,0.385531136,,0.461538462,2.24,11,4,,0.30952381,3.53,7,2.885,5
3,Quick,F,N,Y,95,190,96,auditory2visual,rightanswer,825,target,visual,v_de,Ja,Verouderde,Pels,1.08048,3.188,3.7,0.406759907,,0.454545455,1.18,0,10,,0.358974359,1.26,4,1.22,9
3,Quick,F,N,Y,14,28,97,auditory2visual,rightanswer,1081,target,visual,v_de,Ja,Heldere,Situatie,0.765895,4,3.2,0.411304348,,0.54,2.33,7,7,,0.282608696,3.33,8,2.83,1
3,Quick,F,N,Y,59,118,98,auditory2visual,rightanswer,542,target,visual,v_het,Nee,Behaard,Beheer,1.04916,2.825,3.2,0.420930233,,0.441860465,1.45,6,7,,0.4,1.95,6,1.7,5
3,Quick,F,N,Y,80,160,99,auditory2visual,rightanswer,874,target,visual,v_de,Nee,Gloeiende,Prijs,0.941964,3.775,3.24,0.425925926,,0.5,1.68,4,9,,0.351851852,3.38,5,2.53,3
3,Quick,F,N,Y,63,126,100,auditory2visual,wronganswer,574,target,visual,v_de,Ja,Wazige,Verhulling,,3.367,3.47,0.47826087,,0.652173913,1.51,2,6,,0.304347826,0.78,10,1.145,1
3,Quick,F,N,Y,55,110,101,auditory2visual,rightanswer,786,target,visual,v_het,Nee,Oranje,Concept,0.99857,3.513,2.965,0.498317915,,0.655172414,2.45,12,6,,0.341463415,2.34,7,2.395,1
3,Quick,F,N,Y,43,86,102,auditory2visual,rightanswer,560,target,visual,v_de,Nee,Groene,Mist,0.770451,4.057,4.365,0.503088538,,0.580645161,2.94,7,6,,0.425531915,3.16,4,3.05,15
3,Quick,F,N,Y,41,82,103,auditory2visual,wronganswer,716,target,visual,v_het,Ja,Luchtig,Oosten,1.00194,2.762,2.87,0.510317461,,0.377777778,1.73,1,7,,0.642857143,2.71,6,2.22,5
3,Quick,F,N,Y,69,138,104,auditory2visual,rightanswer,471,target,visual,v_de,Nee,Rode,Huur,0.987542,3.661,3.565,0.531329924,,0.739130435,3.19,1,4,,0.323529412,2.95,4,3.07,9
3,Quick,F,N,Y,1,2,105,auditory2visual,rightanswer,593,target,visual,v_de,Nee,Lage,Magie,0.96932,3.386,2.335,0.558045977,,0.633333333,2.61,0,4,,0.482758621,2.75,5,2.68,1
3,Quick,F,N,Y,54,108,106,auditory2visual,rightanswer,671,target,visual,v_de,Nee,Fuchsia,Eigenaar,0.94063,3.902,3.735,0.577106519,,0.918918919,1,0,7,,0.235294118,3.02,8,2.01,1
3,Quick,F,N,Y,60,120,107,auditory2visual,wronganswer,645,target,visual,v_de,Ja,Gespikkelde,Pels,0.756941,3.313,4.235,0.602564103,,0.846153846,0.78,0,11,,0.358974359,1.26,4,1.02,9
3,Quick,F,N,Y,35,70,108,auditory2visual,wronganswer,688,target,visual,v_de,Ja,Blonde,Pupil,0.910093,4.05,4.1,0.620110447,,0.679245283,2.55,4,6,,0.56097561,1.66,5,2.105,0
3,Quick,F,N,Y,24,47,109,haptic2visual,rightanswer,874,context,haptic,h_het,Ja,Gebroken,Bot,0.552381,3.135,4,0.150597388,,0.114754098,3.31,3,8,,0.186440678,2.71,3,3.01,29
3,Quick,F,N,Y,50,99,110,haptic2visual,rightanswer,444,context,haptic,h_het,Nee,Drassig,Welzijn,1.02971,3.444,2.73,0.157072369,,0.15625,0.78,0,7,,0.157894737,2.33,7,1.555,0
3,Quick,F,N,Y,28,55,111,haptic2visual,rightanswer,840,context,haptic,h_het,Nee,Gewichtloos,Geweer,0.774708,3.214,3.83,0.177732794,,0.263157895,1.28,0,11,,0.092307692,3.06,6,2.17,3
3,Quick,F,N,Y,103,205,112,haptic2visual,rightanswer,936,context,haptic,h_de,Nee,Schurende,Spier,,3.357,4.67,0.195349848,,0.102564103,0.48,1,9,,0.288135593,2.04,5,1.26,4
3,Quick,F,N,Y,36,71,113,haptic2visual,rightanswer,688,context,haptic,h_het,Nee,Kietelend,Pistool,,4.089,4.87,0.2,,0.307692308,0.6,1,9,,0.092307692,3.23,7,1.915,0
3,Quick,F,N,Y,11,21,114,haptic2visual,rightanswer,961,context,haptic,h_het,Nee,Pijnvol,Heft,,2.65,2.71,0.205128205,,0.076923077,0.48,0,7,,0.333333333,2.03,4,1.255,8
3,Quick,F,N,Y,108,215,115,haptic2visual,rightanswer,841,context,haptic,h_de,Nee,Jeukende,Schok,,2.857,3.33,0.205882353,,0.333333333,0.95,1,8,,0.078431372,2.62,5,1.785,6
3,Quick,F,N,Y,9,17,116,haptic2visual,wronganswer,828,context,haptic,h_de,Nee,Kleverige,Sterkte,0.820183,3.5,2.565,0.215163321,,0.323943662,1.32,1,9,,0.106382979,2.48,7,1.9,2
3,Quick,F,N,Y,66,131,117,haptic2visual,rightanswer,795,context,haptic,h_de,Ja,Slijmerige,Vloeistof,0.650393,4,3.735,0.222513743,,0.289855072,1.75,1,10,,0.155172414,2.21,9,1.98,0
3,Quick,F,N,Y,31,61,118,haptic2visual,rightanswer,967,context,haptic,h_het,Nee,Doorweekt,Welzijn,0.995511,3.59,2.565,0.227756893,,0.297619048,1.86,0,9,,0.157894737,2.33,7,2.095,0
3,Quick,F,N,Y,64,127,119,haptic2visual,wronganswer,686,context,haptic,h_het,Ja,Ruw,Contact,0.850669,3.357,3.135,0.228896104,,0.321428571,2.49,11,3,,0.136363636,3.37,7,2.93,2
3,Quick,F,N,Y,98,195,120,haptic2visual,rightanswer,645,context,haptic,h_het,Ja,Hard,Heft,0.890188,2.938,3.055,0.238095238,,0.142857143,3.6,12,4,,0.333333333,2.03,4,2.815,8
3,Quick,F,N,Y,2,3,121,haptic2visual,wronganswer,888,context,haptic,h_het,Ja,Mals,Contact,1.20917,3.982,3.1,0.242094862,,0.347826087,1.64,13,4,,0.136363636,3.37,7,2.505,2
3,Quick,F,N,Y,79,157,122,haptic2visual,rightanswer,631,context,haptic,h_het,Ja,Broos,Bot,0.873392,3.482,3.87,0.243220339,,0.3,1.26,6,5,,0.186440678,2.71,3,1.985,29
3,Quick,F,N,Y,26,51,123,haptic2visual,wronganswer,820,context,haptic,h_het,Ja,Heet,Pistool,0.773426,3.46,2.8,0.246153846,,0.4,3.74,18,4,,0.092307692,3.23,7,3.485,0
3,Quick,F,N,Y,99,197,124,haptic2visual,rightanswer,700,context,haptic,h_het,Nee,Zijdeachtig,Zeer,0.880074,3.911,1.6,0.255668399,,0.356164384,0.7,0,12,,0.155172414,3.5,4,2.1,19
3,Quick,F,N,Y,23,45,125,haptic2visual,rightanswer,568,context,haptic,h_het,Nee,Pulserend,Heft,,2.393,2.71,0.256410256,,0.179487179,0.48,0,9,,0.333333333,2.03,4,1.255,8
3,Quick,F,N,Y,30,59,126,haptic2visual,wronganswer,952,context,haptic,h_het,Ja,Bevriezend,Contact,,3.257,2.4,0.257836991,,0.379310345,0.3,1,10,,0.136363636,3.37,7,1.835,2
3,Quick,F,N,Y,106,211,127,haptic2visual,wronganswer,571,context,haptic,h_de,Ja,Zachte,Spier,0.832062,3.982,4.2,0.262488849,,0.236842105,2.59,14,6,,0.288135593,2.04,5,2.315,4
3,Quick,F,N,Y,76,151,128,haptic2visual,rightanswer,420,context,haptic,h_het,Nee,Hitsig,Vilt,0.809776,3.75,3.47,0.2625,,0.125,1.46,1,7,,0.4,1.4,4,1.43,11
3,Quick,F,N,Y,51,101,129,haptic2visual,rightanswer,662,context,haptic,h_de,Nee,Plakkende,Spier,,3.657,4.67,0.263115416,,0.238095238,0.48,2,9,,0.288135593,2.04,5,1.26,4
3,Quick,F,N,Y,62,123,130,haptic2visual,wronganswer,538,context,haptic,h_de,Ja,Geneeskrachtige,Rots,0.920404,2.557,4.73,0.263673891,,0.176470588,1,0,15,,0.350877193,2.62,4,1.81,8
3,Quick,F,N,Y,81,161,131,haptic2visual,wronganswer,1164,context,haptic,h_de,Nee,Taaie,Vloeistof,0.864188,3.875,3.835,0.283606151,,0.301587302,2.19,10,5,,0.265625,2.21,9,2.2,0
3,Quick,F,N,Y,10,19,132,haptic2visual,rightanswer,697,context,haptic,h_de,Nee,Stekelige,Deken,0.795281,3.786,4.465,0.284749035,,0.285714286,0.9,0,9,,0.283783784,2.6,5,1.75,18
3,Quick,F,N,Y,48,95,133,haptic2visual,rightanswer,412,context,haptic,h_het,Nee,Borstelig,Heft,0.898736,3.25,3.155,0.338095238,,0.342857143,0.48,0,9,,0.333333333,2.03,4,1.255,8
3,Quick,F,N,Y,46,91,134,haptic2visual,rightanswer,832,context,haptic,h_de,Ja,Korrelige,Rots,0.87875,3.357,4.43,0.34785239,,0.344827586,0.3,0,9,,0.350877193,2.62,4,1.46,8
3,Quick,F,N,Y,83,165,135,haptic2visual,rightanswer,447,context,haptic,h_de,Nee,Zere,Rots,0.845866,4.107,3.165,0.354010025,,0.357142857,1.86,19,4,,0.350877193,2.62,4,2.24,8
3,Quick,F,N,Y,61,121,136,haptic2visual,rightanswer,847,context,haptic,h_de,Nee,Klamme,Geest,0.834267,2.567,2.57,0.355983773,,0.470588235,1.4,10,6,,0.24137931,3.28,5,2.34,9
3,Quick,F,N,Y,75,149,137,haptic2visual,rightanswer,877,context,haptic,h_de,Ja,Glibberige,Rots,0.709194,4.107,4.13,0.356598017,,0.362318841,1.53,1,10,,0.350877193,2.62,4,2.075,8
3,Quick,F,N,Y,20,39,138,haptic2visual,rightanswer,766,context,haptic,h_het,Nee,Glad,Vilt,0.83905,4.375,4.305,0.362650603,,0.325301205,2.17,2,6,,0.4,1.4,4,1.785,11
3,Quick,F,N,Y,100,199,139,haptic2visual,wronganswer,816,context,haptic,h_het,Ja,Donzig,Zaad,0.672252,3.261,4.065,0.384415585,,0.25974026,1.3,13,6,,0.509090909,2.33,4,1.815,8
3,Quick,F,N,Y,101,201,140,haptic2visual,rightanswer,859,context,haptic,h_de,Ja,Warme,Massage,0.752902,4.306,3.835,0.388146168,,0.393939394,2.87,9,5,,0.382352941,2.31,7,2.59,3
